"STUDYID"	"USUBJID"	"SUBJID"	"RFSTDTC"	"RFENDTC"	"RFXSTDTC"	"RFXENDTC"	"RFICDTC"	"RFPENDTC"	"DTHDTC"	"DTHFL"	"SITEID"	"AGE"	"AGEU"	"SEX"	"RACE"	"ETHNIC"	"ARMCD"	"ARM"	"ACTARMCD"	"ACTARM"	"COUNTRY"	"DMDTC"	"DMDY"	"TRT01P"	"TRT01A"	"TRTSDTM"	"TRTSTMF"	"TRTEDTM"	"TRTETMF"	"TRTSDT"	"TRTEDT"	"TRTDURD"	"SCRFDT"	"EOSDT"	"EOSSTT"	"FRVDT"	"RANDDT"	"DTHDT"	"DTHADY"	"LDDTHELD"	"LSTALVDT"	"AGEGR1"	"SAFFL"	"RACEGR1"	"REGION1"	"LDDTHGR1"	"DTH30FL"	"DTHA30FL"	"DTHB30FL"
"1"	"CDISCPILOT01"	"01-701-1015"	1015	"2014-01-02"	"2014-07-02"	"2014-01-02"	"2014-07-02"	NA	"2014-07-02T11:45"	NA	NA	701	63	"YEARS"	"F"	"WHITE"	"HISPANIC OR LATINO"	"Pbo"	"Placebo"	"Pbo"	"Placebo"	"USA"	"2013-12-26"	-7	"Placebo"	"Placebo"	"2014-01-02T00:00:00Z"	"H"	"2014-07-02T23:59:59Z"	"H"	"2014-01-02"	"2014-07-02"	182	NA	"2014-07-02"	"COMPLETED"	NA	"2014-01-02"	NA	NA	NA	"2014-07-02"	"18-64"	"Y"	"White"	NA	NA	NA	NA	NA
"2"	"CDISCPILOT01"	"01-701-1023"	1023	"2012-08-05"	"2012-09-02"	"2012-08-05"	"2012-09-01"	NA	"2013-02-18"	NA	NA	701	64	"YEARS"	"M"	"WHITE"	"HISPANIC OR LATINO"	"Pbo"	"Placebo"	"Pbo"	"Placebo"	"USA"	"2012-07-22"	-14	"Placebo"	"Placebo"	"2012-08-05T00:00:00Z"	"H"	"2012-09-01T23:59:59Z"	"H"	"2012-08-05"	"2012-09-01"	28	NA	"2012-09-02"	"DISCONTINUED"	"2013-02-18"	"2012-08-05"	NA	NA	NA	"2012-09-02"	"18-64"	"Y"	"White"	NA	NA	NA	NA	NA
"3"	"CDISCPILOT01"	"01-701-1028"	1028	"2013-07-19"	"2014-01-14"	"2013-07-19"	"2014-01-14"	NA	"2014-01-14T11:10"	NA	NA	701	71	"YEARS"	"M"	"WHITE"	"NOT HISPANIC OR LATINO"	"Xan_Hi"	"Xanomeline High Dose"	"Xan_Hi"	"Xanomeline High Dose"	"USA"	"2013-07-11"	-8	"Xanomeline High Dose"	"Xanomeline High Dose"	"2013-07-19T00:00:00Z"	"H"	"2014-01-14T23:59:59Z"	"H"	"2013-07-19"	"2014-01-14"	180	NA	"2014-01-14"	"COMPLETED"	NA	"2013-07-19"	NA	NA	NA	"2014-01-14"	">=65"	"Y"	"White"	NA	NA	NA	NA	NA
"4"	"CDISCPILOT01"	"01-701-1033"	1033	"2014-03-18"	"2014-04-14"	"2014-03-18"	"2014-03-31"	NA	"2014-09-15"	NA	NA	701	74	"YEARS"	"M"	"WHITE"	"NOT HISPANIC OR LATINO"	"Xan_Lo"	"Xanomeline Low Dose"	"Xan_Lo"	"Xanomeline Low Dose"	"USA"	"2014-03-10"	-8	"Xanomeline Low Dose"	"Xanomeline Low Dose"	"2014-03-18T00:00:00Z"	"H"	"2014-03-31T23:59:59Z"	"H"	"2014-03-18"	"2014-03-31"	14	NA	"2014-04-14"	"DISCONTINUED"	"2014-09-15"	"2014-03-18"	NA	NA	NA	"2014-04-14"	">=65"	"Y"	"White"	NA	NA	NA	NA	NA
"5"	"CDISCPILOT01"	"01-701-1034"	1034	"2014-07-01"	"2014-12-30"	"2014-07-01"	"2014-12-30"	NA	"2014-12-30T09:50"	NA	NA	701	77	"YEARS"	"F"	"WHITE"	"NOT HISPANIC OR LATINO"	"Xan_Hi"	"Xanomeline High Dose"	"Xan_Hi"	"Xanomeline High Dose"	"USA"	"2014-06-24"	-7	"Xanomeline High Dose"	"Xanomeline High Dose"	"2014-07-01T00:00:00Z"	"H"	"2014-12-30T23:59:59Z"	"H"	"2014-07-01"	"2014-12-30"	183	NA	"2014-12-30"	"COMPLETED"	NA	"2014-07-01"	NA	NA	NA	"2014-12-30"	">=65"	"Y"	"White"	NA	NA	NA	NA	NA
"6"	"CDISCPILOT01"	"01-701-1047"	1047	"2013-02-12"	"2013-03-29"	"2013-02-12"	"2013-03-09"	NA	"2013-07-28"	NA	NA	701	85	"YEARS"	"F"	"WHITE"	"NOT HISPANIC OR LATINO"	"Pbo"	"Placebo"	"Pbo"	"Placebo"	"USA"	"2013-01-22"	-21	"Placebo"	"Placebo"	"2013-02-12T00:00:00Z"	"H"	"2013-03-09T23:59:59Z"	"H"	"2013-02-12"	"2013-03-09"	26	NA	"2013-03-29"	"DISCONTINUED"	"2013-07-28"	"2013-02-12"	NA	NA	NA	"2013-04-07"	">=65"	"Y"	"White"	NA	NA	NA	NA	NA
"7"	"CDISCPILOT01"	"01-701-1057"	1057	NA	NA	NA	NA	NA	"2013-12-27"	NA	NA	701	59	"YEARS"	"F"	"WHITE"	"HISPANIC OR LATINO"	"Scrnfail"	"Screen Failure"	"Scrnfail"	"Screen Failure"	"USA"	"2013-12-20"	NA	"Screen Failure"	"Screen Failure"	NA	NA	NA	NA	NA	NA	NA	"2013-12-20"	NA	NA	NA	NA	NA	NA	NA	NA	"18-64"	NA	"White"	NA	NA	NA	NA	NA
"8"	"CDISCPILOT01"	"01-701-1097"	1097	"2014-01-01"	"2014-07-09"	"2014-01-01"	"2014-07-09"	NA	"2014-07-09T09:39"	NA	NA	701	68	"YEARS"	"M"	"WHITE"	"NOT HISPANIC OR LATINO"	"Xan_Lo"	"Xanomeline Low Dose"	"Xan_Lo"	"Xanomeline Low Dose"	"USA"	"2013-12-23"	-9	"Xanomeline Low Dose"	"Xanomeline Low Dose"	"2014-01-01T00:00:00Z"	"H"	"2014-07-09T23:59:59Z"	"H"	"2014-01-01"	"2014-07-09"	190	NA	"2014-07-09"	"COMPLETED"	NA	"2014-01-01"	NA	NA	NA	"2014-07-09"	">=65"	"Y"	"White"	NA	NA	NA	NA	NA
"9"	"CDISCPILOT01"	"01-701-1111"	1111	"2012-09-07"	"2012-09-17"	"2012-09-07"	"2012-09-16"	NA	"2013-02-22"	NA	NA	701	81	"YEARS"	"F"	"WHITE"	"NOT HISPANIC OR LATINO"	"Xan_Lo"	"Xanomeline Low Dose"	"Xan_Lo"	"Xanomeline Low Dose"	"USA"	"2012-08-25"	-13	"Xanomeline Low Dose"	"Xanomeline Low Dose"	"2012-09-07T00:00:00Z"	"H"	"2012-09-16T23:59:59Z"	"H"	"2012-09-07"	"2012-09-16"	10	NA	"2012-09-17"	"DISCONTINUED"	"2013-02-22"	"2012-09-07"	NA	NA	NA	"2012-09-17"	">=65"	"Y"	"White"	NA	NA	NA	NA	NA
"10"	"CDISCPILOT01"	"01-701-1115"	1115	"2012-11-30"	"2013-01-23"	"2012-11-30"	"2013-01-23"	NA	"2013-05-20"	NA	NA	701	84	"YEARS"	"M"	"WHITE"	"NOT HISPANIC OR LATINO"	"Xan_Lo"	"Xanomeline Low Dose"	"Xan_Lo"	"Xanomeline Low Dose"	"USA"	"2012-11-23"	-7	"Xanomeline Low Dose"	"Xanomeline Low Dose"	"2012-11-30T00:00:00Z"	"H"	"2013-01-23T23:59:59Z"	"H"	"2012-11-30"	"2013-01-23"	55	NA	"2013-01-23"	"DISCONTINUED"	"2013-05-20"	"2012-11-30"	NA	NA	NA	"2013-01-23"	">=65"	"Y"	"White"	NA	NA	NA	NA	NA
"11"	"CDISCPILOT01"	"01-701-1118"	1118	"2014-03-12"	"2014-09-09"	"2014-03-12"	"2014-09-09"	NA	"2014-09-09T13:28"	NA	NA	701	52	"YEARS"	"M"	"WHITE"	"NOT HISPANIC OR LATINO"	"Pbo"	"Placebo"	"Pbo"	"Placebo"	"USA"	"2014-02-27"	-13	"Placebo"	"Placebo"	"2014-03-12T00:00:00Z"	"H"	"2014-09-09T23:59:59Z"	"H"	"2014-03-12"	"2014-09-09"	182	NA	"2014-09-09"	"COMPLETED"	NA	"2014-03-12"	NA	NA	NA	"2014-09-09"	"18-64"	"Y"	"White"	NA	NA	NA	NA	NA
"12"	"CDISCPILOT01"	"01-701-1130"	1130	"2014-02-15"	"2014-08-16"	"2014-02-15"	"2014-08-16"	NA	"2014-08-16T13:10"	NA	NA	701	84	"YEARS"	"M"	"WHITE"	"NOT HISPANIC OR LATINO"	"Pbo"	"Placebo"	"Pbo"	"Placebo"	"USA"	"2014-02-09"	-6	"Placebo"	"Placebo"	"2014-02-15T00:00:00Z"	"H"	"2014-08-16T23:59:59Z"	"H"	"2014-02-15"	"2014-08-16"	183	NA	"2014-08-16"	"COMPLETED"	NA	"2014-02-15"	NA	NA	NA	"2014-08-16"	">=65"	"Y"	"White"	NA	NA	NA	NA	NA
"13"	"CDISCPILOT01"	"01-701-1133"	1133	"2012-10-28"	"2013-04-29"	"2012-10-28"	"2013-04-28"	NA	"2013-04-29T10:13"	NA	NA	701	81	"YEARS"	"F"	"WHITE"	"NOT HISPANIC OR LATINO"	"Xan_Hi"	"Xanomeline High Dose"	"Xan_Hi"	"Xanomeline High Dose"	"USA"	"2012-10-23"	-5	"Xanomeline High Dose"	"Xanomeline High Dose"	"2012-10-28T00:00:00Z"	"H"	"2013-04-28T23:59:59Z"	"H"	"2012-10-28"	"2013-04-28"	183	NA	"2013-04-29"	"COMPLETED"	NA	"2012-10-28"	NA	NA	NA	"2013-04-29"	">=65"	"Y"	"White"	NA	NA	NA	NA	NA
"14"	"CDISCPILOT01"	"01-701-1145"	1145	NA	NA	NA	NA	NA	"2013-09-19"	NA	NA	701	57	"YEARS"	"F"	"WHITE"	"NOT HISPANIC OR LATINO"	"Scrnfail"	"Screen Failure"	"Scrnfail"	"Screen Failure"	"USA"	"2013-09-05"	NA	"Screen Failure"	"Screen Failure"	NA	NA	NA	NA	NA	NA	NA	"2013-09-05"	NA	NA	NA	NA	NA	NA	NA	NA	"18-64"	NA	"White"	NA	NA	NA	NA	NA
"15"	"CDISCPILOT01"	"01-701-1146"	1146	"2013-05-20"	"2013-06-30"	"2013-05-20"	"2013-06-26"	NA	"2013-07-15"	NA	NA	701	75	"YEARS"	"F"	"WHITE"	"NOT HISPANIC OR LATINO"	"Xan_Hi"	"Xanomeline High Dose"	"Xan_Hi"	"Xanomeline High Dose"	"USA"	"2013-05-07"	-13	"Xanomeline High Dose"	"Xanomeline High Dose"	"2013-05-20T00:00:00Z"	"H"	"2013-06-26T23:59:59Z"	"H"	"2013-05-20"	"2013-06-26"	38	NA	"2013-06-30"	"DISCONTINUED"	NA	"2013-05-20"	NA	NA	NA	"2013-06-30"	">=65"	"Y"	"White"	NA	NA	NA	NA	NA
"16"	"CDISCPILOT01"	"01-701-1148"	1148	"2013-08-23"	"2014-02-20"	"2013-08-23"	"2014-02-20"	NA	"2014-02-20T15:07"	NA	NA	701	57	"YEARS"	"M"	"WHITE"	"NOT HISPANIC OR LATINO"	"Xan_Hi"	"Xanomeline High Dose"	"Xan_Hi"	"Xanomeline High Dose"	"USA"	"2013-08-14"	-9	"Xanomeline High Dose"	"Xanomeline High Dose"	"2013-08-23T00:00:00Z"	"H"	"2014-02-20T23:59:59Z"	"H"	"2013-08-23"	"2014-02-20"	182	NA	"2014-02-20"	"COMPLETED"	NA	"2013-08-23"	NA	NA	NA	"2014-02-20"	"18-64"	"Y"	"White"	NA	NA	NA	NA	NA
"17"	"CDISCPILOT01"	"01-701-1153"	1153	"2013-09-23"	"2014-04-01"	"2013-09-23"	"2014-03-16"	NA	"2014-04-01T14:25"	NA	NA	701	79	"YEARS"	"F"	"WHITE"	"NOT HISPANIC OR LATINO"	"Pbo"	"Placebo"	"Pbo"	"Placebo"	"USA"	"2013-09-06"	-17	"Placebo"	"Placebo"	"2013-09-23T00:00:00Z"	"H"	"2014-03-16T23:59:59Z"	"H"	"2013-09-23"	"2014-03-16"	175	NA	"2014-04-01"	"COMPLETED"	NA	"2013-09-23"	NA	NA	NA	"2014-04-01"	">=65"	"Y"	"White"	NA	NA	NA	NA	NA
"18"	"CDISCPILOT01"	"01-701-1162"	1162	NA	NA	NA	NA	NA	"2013-04-18"	NA	NA	701	82	"YEARS"	"F"	"WHITE"	"NOT HISPANIC OR LATINO"	"Scrnfail"	"Screen Failure"	"Scrnfail"	"Screen Failure"	"USA"	"2013-04-18"	NA	"Screen Failure"	"Screen Failure"	NA	NA	NA	NA	NA	NA	NA	"2013-04-18"	NA	NA	NA	NA	NA	NA	NA	NA	">=65"	NA	"White"	NA	NA	NA	NA	NA
"19"	"CDISCPILOT01"	"01-701-1176"	1176	NA	NA	NA	NA	NA	"2012-09-30"	NA	NA	701	62	"YEARS"	"F"	"AMERICAN INDIAN OR ALASKA NATIVE"	"NOT HISPANIC OR LATINO"	"Scrnfail"	"Screen Failure"	"Scrnfail"	"Screen Failure"	"USA"	"2012-09-30"	NA	"Screen Failure"	"Screen Failure"	NA	NA	NA	NA	NA	NA	NA	"2012-09-30"	NA	NA	NA	NA	NA	NA	NA	NA	"18-64"	NA	"Non-white"	NA	NA	NA	NA	NA
"20"	"CDISCPILOT01"	"01-701-1180"	1180	"2013-02-12"	"2013-03-23"	"2013-02-12"	"2013-03-18"	NA	"2013-04-07"	NA	NA	701	56	"YEARS"	"M"	"WHITE"	"NOT HISPANIC OR LATINO"	"Xan_Hi"	"Xanomeline High Dose"	"Xan_Hi"	"Xanomeline High Dose"	"USA"	"2013-01-28"	-15	"Xanomeline High Dose"	"Xanomeline High Dose"	"2013-02-12T00:00:00Z"	"H"	"2013-03-18T23:59:59Z"	"H"	"2013-02-12"	"2013-03-18"	35	NA	"2013-03-23"	"DISCONTINUED"	NA	"2013-02-12"	NA	NA	NA	"2013-03-23"	"18-64"	"Y"	"White"	NA	NA	NA	NA	NA
"21"	"CDISCPILOT01"	"01-701-1181"	1181	"2013-12-05"	"2013-12-12"	"2013-12-05"	"2013-12-09"	NA	"2014-05-23"	NA	NA	701	79	"YEARS"	"F"	"WHITE"	"NOT HISPANIC OR LATINO"	"Xan_Hi"	"Xanomeline High Dose"	"Xan_Lo"	"Xanomeline Low Dose"	"USA"	"2013-11-26"	-9	"Xanomeline High Dose"	"Xanomeline Low Dose"	"2013-12-05T00:00:00Z"	"H"	"2013-12-09T23:59:59Z"	"H"	"2013-12-05"	"2013-12-09"	5	NA	"2013-12-12"	"DISCONTINUED"	"2014-05-23"	"2013-12-05"	NA	NA	NA	"2013-12-12"	">=65"	"Y"	"White"	NA	NA	NA	NA	NA
"22"	"CDISCPILOT01"	"01-701-1188"	1188	"2013-02-15"	"2013-03-25"	"2013-02-15"	"2013-03-24"	NA	"2013-08-04"	NA	NA	701	71	"YEARS"	"M"	"WHITE"	"NOT HISPANIC OR LATINO"	"Xan_Lo"	"Xanomeline Low Dose"	"Xan_Lo"	"Xanomeline Low Dose"	"USA"	"2013-02-03"	-12	"Xanomeline Low Dose"	"Xanomeline Low Dose"	"2013-02-15T00:00:00Z"	"H"	"2013-03-24T23:59:59Z"	"H"	"2013-02-15"	"2013-03-24"	38	NA	"2013-03-25"	"DISCONTINUED"	"2013-08-04"	"2013-02-15"	NA	NA	NA	"2013-03-25"	">=65"	"Y"	"White"	NA	NA	NA	NA	NA
"23"	"CDISCPILOT01"	"01-701-1192"	1192	"2012-07-22"	"2013-01-20"	"2012-07-22"	"2013-01-20"	NA	"2013-01-20T15:47"	NA	NA	701	80	"YEARS"	"F"	"WHITE"	"NOT HISPANIC OR LATINO"	"Xan_Lo"	"Xanomeline Low Dose"	"Xan_Lo"	"Xanomeline Low Dose"	"USA"	"2012-07-08"	-14	"Xanomeline Low Dose"	"Xanomeline Low Dose"	"2012-07-22T00:00:00Z"	"H"	"2013-01-20T23:59:59Z"	"H"	"2012-07-22"	"2013-01-20"	183	NA	"2013-01-20"	"COMPLETED"	NA	"2012-07-22"	NA	NA	NA	"2013-01-20"	">=65"	"Y"	"White"	NA	NA	NA	NA	NA
"24"	"CDISCPILOT01"	"01-701-1203"	1203	"2013-02-02"	"2013-08-03"	"2013-02-02"	"2013-08-03"	NA	"2013-08-03T10:10"	NA	NA	701	81	"YEARS"	"F"	"BLACK OR AFRICAN AMERICAN"	"NOT HISPANIC OR LATINO"	"Pbo"	"Placebo"	"Pbo"	"Placebo"	"USA"	"2013-01-25"	-8	"Placebo"	"Placebo"	"2013-02-02T00:00:00Z"	"H"	"2013-08-03T23:59:59Z"	"H"	"2013-02-02"	"2013-08-03"	183	NA	"2013-08-03"	"COMPLETED"	NA	"2013-02-02"	NA	NA	NA	"2013-08-03"	">=65"	"Y"	"Non-white"	NA	NA	NA	NA	NA
"25"	"CDISCPILOT01"	"01-701-1211"	1211	"2012-11-15"	"2013-01-14"	"2012-11-15"	"2013-01-12"	NA	"2013-01-14"	"2013-01-14"	"Y"	701	76	"YEARS"	"F"	"WHITE"	"NOT HISPANIC OR LATINO"	"Xan_Lo"	"Xanomeline Low Dose"	"Xan_Lo"	"Xanomeline Low Dose"	"USA"	"2012-10-30"	-16	"Xanomeline Low Dose"	"Xanomeline Low Dose"	"2012-11-15T00:00:00Z"	"H"	"2013-01-12T23:59:59Z"	"H"	"2012-11-15"	"2013-01-12"	59	NA	"2013-01-14"	"DISCONTINUED"	NA	"2012-11-15"	"2013-01-14"	61	2	"2013-01-14"	">=65"	"Y"	"White"	NA	"<= 30"	"Y"	NA	NA
"26"	"CDISCPILOT01"	"01-701-1234"	1234	"2013-03-30"	"2013-09-22"	"2013-03-30"	"2013-09-22"	NA	"2013-09-22T09:25"	NA	NA	701	69	"YEARS"	"M"	"WHITE"	"NOT HISPANIC OR LATINO"	"Pbo"	"Placebo"	"Pbo"	"Placebo"	"USA"	"2013-03-20"	-10	"Placebo"	"Placebo"	"2013-03-30T00:00:00Z"	"H"	"2013-09-22T23:59:59Z"	"H"	"2013-03-30"	"2013-09-22"	177	NA	"2013-09-22"	"COMPLETED"	NA	"2013-03-30"	NA	NA	NA	"2013-09-22"	">=65"	"Y"	"White"	NA	NA	NA	NA	NA
"27"	"CDISCPILOT01"	"01-701-1239"	1239	"2014-01-11"	"2014-07-11"	"2014-01-11"	"2014-07-10"	NA	"2014-07-11T15:40"	NA	NA	701	56	"YEARS"	"M"	"WHITE"	"HISPANIC OR LATINO"	"Xan_Hi"	"Xanomeline High Dose"	"Xan_Hi"	"Xanomeline High Dose"	"USA"	"2013-12-28"	-14	"Xanomeline High Dose"	"Xanomeline High Dose"	"2014-01-11T00:00:00Z"	"H"	"2014-07-10T23:59:59Z"	"H"	"2014-01-11"	"2014-07-10"	181	NA	"2014-07-11"	"COMPLETED"	NA	"2014-01-11"	NA	NA	NA	"2014-07-11"	"18-64"	"Y"	"White"	NA	NA	NA	NA	NA
"28"	"CDISCPILOT01"	"01-701-1240"	1240	NA	NA	NA	NA	NA	"2013-09-24"	NA	NA	701	57	"YEARS"	"F"	"BLACK OR AFRICAN AMERICAN"	"NOT HISPANIC OR LATINO"	"Scrnfail"	"Screen Failure"	"Scrnfail"	"Screen Failure"	"USA"	"2013-09-22"	NA	"Screen Failure"	"Screen Failure"	NA	NA	NA	NA	NA	NA	NA	"2013-09-22"	NA	NA	NA	NA	NA	NA	NA	NA	"18-64"	NA	"Non-white"	NA	NA	NA	NA	NA
"29"	"CDISCPILOT01"	"01-701-1275"	1275	"2014-02-07"	"2014-06-14"	"2014-02-07"	"2014-05-31"	NA	"2014-06-14T12:35"	NA	NA	701	61	"YEARS"	"M"	"AMERICAN INDIAN OR ALASKA NATIVE"	"NOT HISPANIC OR LATINO"	"Xan_Hi"	"Xanomeline High Dose"	"Xan_Hi"	"Xanomeline High Dose"	"USA"	"2014-01-25"	-13	"Xanomeline High Dose"	"Xanomeline High Dose"	"2014-02-07T00:00:00Z"	"H"	"2014-05-31T23:59:59Z"	"H"	"2014-02-07"	"2014-05-31"	114	NA	"2014-06-14"	"DISCONTINUED"	NA	"2014-02-07"	NA	NA	NA	"2014-06-14"	"18-64"	"Y"	"Non-white"	NA	NA	NA	NA	NA
"30"	"CDISCPILOT01"	"01-701-1287"	1287	"2014-01-25"	"2014-07-26"	"2014-01-25"	"2014-07-26"	NA	"2014-07-26T13:15"	NA	NA	701	56	"YEARS"	"F"	"WHITE"	"HISPANIC OR LATINO"	"Xan_Hi"	"Xanomeline High Dose"	"Xan_Hi"	"Xanomeline High Dose"	"USA"	"2014-01-17"	-8	"Xanomeline High Dose"	"Xanomeline High Dose"	"2014-01-25T00:00:00Z"	"H"	"2014-07-26T23:59:59Z"	"H"	"2014-01-25"	"2014-07-26"	183	NA	"2014-07-26"	"COMPLETED"	NA	"2014-01-25"	NA	NA	NA	"2014-07-26"	"18-64"	"Y"	"White"	NA	NA	NA	NA	NA
"31"	"CDISCPILOT01"	"01-701-1294"	1294	"2013-03-24"	"2013-06-14"	"2013-03-24"	"2013-06-14"	NA	"2013-10-08"	NA	NA	701	67	"YEARS"	"M"	"WHITE"	"NOT HISPANIC OR LATINO"	"Xan_Lo"	"Xanomeline Low Dose"	"Xan_Lo"	"Xanomeline Low Dose"	"USA"	"2013-03-17"	-7	"Xanomeline Low Dose"	"Xanomeline Low Dose"	"2013-03-24T00:00:00Z"	"H"	"2013-06-14T23:59:59Z"	"H"	"2013-03-24"	"2013-06-14"	83	NA	"2013-06-14"	"DISCONTINUED"	"2013-10-08"	"2013-03-24"	NA	NA	NA	"2013-06-14"	">=65"	"Y"	"White"	NA	NA	NA	NA	NA
"32"	"CDISCPILOT01"	"01-701-1302"	1302	"2013-08-29"	"2013-11-05"	"2013-08-29"	"2013-11-05"	NA	"2014-02-13"	NA	NA	701	61	"YEARS"	"M"	"WHITE"	"NOT HISPANIC OR LATINO"	"Xan_Hi"	"Xanomeline High Dose"	"Xan_Hi"	"Xanomeline High Dose"	"USA"	"2013-08-20"	-9	"Xanomeline High Dose"	"Xanomeline High Dose"	"2013-08-29T00:00:00Z"	"H"	"2013-11-05T23:59:59Z"	"H"	"2013-08-29"	"2013-11-05"	69	NA	"2013-11-05"	"DISCONTINUED"	"2014-02-13"	"2013-08-29"	NA	NA	NA	"2013-11-05"	"18-64"	"Y"	"White"	NA	NA	NA	NA	NA
"33"	"CDISCPILOT01"	"01-701-1307"	1307	NA	NA	NA	NA	NA	"2014-01-02"	NA	NA	701	80	"YEARS"	"F"	"WHITE"	"NOT HISPANIC OR LATINO"	"Scrnfail"	"Screen Failure"	"Scrnfail"	"Screen Failure"	"USA"	"2013-12-08"	NA	"Screen Failure"	"Screen Failure"	NA	NA	NA	NA	NA	NA	NA	"2013-12-08"	NA	NA	NA	NA	NA	NA	NA	NA	">=65"	NA	"White"	NA	NA	NA	NA	NA
"34"	"CDISCPILOT01"	"01-701-1317"	1317	"2014-05-22"	"2014-11-20"	"2014-05-22"	"2014-11-20"	NA	"2014-11-20T11:54"	NA	NA	701	68	"YEARS"	"M"	"WHITE"	"NOT HISPANIC OR LATINO"	"Xan_Lo"	"Xanomeline Low Dose"	"Xan_Lo"	"Xanomeline Low Dose"	"USA"	"2014-05-10"	-12	"Xanomeline Low Dose"	"Xanomeline Low Dose"	"2014-05-22T00:00:00Z"	"H"	"2014-11-20T23:59:59Z"	"H"	"2014-05-22"	"2014-11-20"	183	NA	"2014-11-20"	"COMPLETED"	NA	"2014-05-22"	NA	NA	NA	"2014-11-20"	">=65"	"Y"	"White"	NA	NA	NA	NA	NA
"35"	"CDISCPILOT01"	"01-701-1324"	1324	"2012-10-02"	"2013-04-02"	"2012-10-02"	"2013-04-02"	NA	"2013-04-02T11:35"	NA	NA	701	79	"YEARS"	"M"	"WHITE"	"NOT HISPANIC OR LATINO"	"Xan_Lo"	"Xanomeline Low Dose"	"Xan_Lo"	"Xanomeline Low Dose"	"USA"	"2012-09-16"	-16	"Xanomeline Low Dose"	"Xanomeline Low Dose"	"2012-10-02T00:00:00Z"	"H"	"2013-04-02T23:59:59Z"	"H"	"2012-10-02"	"2013-04-02"	183	NA	"2013-04-02"	"COMPLETED"	NA	"2012-10-02"	NA	NA	NA	"2013-04-02"	">=65"	"Y"	"White"	NA	NA	NA	NA	NA
"36"	"CDISCPILOT01"	"01-701-1341"	1341	"2013-01-05"	"2013-02-07"	"2013-01-05"	"2013-01-26"	NA	"2013-02-21"	NA	NA	701	51	"YEARS"	"M"	"WHITE"	"NOT HISPANIC OR LATINO"	"Xan_Lo"	"Xanomeline Low Dose"	"Xan_Lo"	"Xanomeline Low Dose"	"USA"	"2012-12-22"	-14	"Xanomeline Low Dose"	"Xanomeline Low Dose"	"2013-01-05T00:00:00Z"	"H"	"2013-01-26T23:59:59Z"	"H"	"2013-01-05"	"2013-01-26"	22	NA	"2013-02-07"	"DISCONTINUED"	NA	"2013-01-05"	NA	NA	NA	"2013-02-07"	"18-64"	"Y"	"White"	NA	NA	NA	NA	NA
"37"	"CDISCPILOT01"	"01-701-1345"	1345	"2013-10-08"	"2014-03-18"	"2013-10-08"	"2014-03-18"	NA	"2014-03-18T14:12"	NA	NA	701	63	"YEARS"	"F"	"WHITE"	"NOT HISPANIC OR LATINO"	"Pbo"	"Placebo"	"Pbo"	"Placebo"	"USA"	"2013-10-01"	-7	"Placebo"	"Placebo"	"2013-10-08T00:00:00Z"	"H"	"2014-03-18T23:59:59Z"	"H"	"2013-10-08"	"2014-03-18"	162	NA	"2014-03-18"	"DISCONTINUED"	NA	"2013-10-08"	NA	NA	NA	"2014-03-18"	"18-64"	"Y"	"White"	NA	NA	NA	NA	NA
"38"	"CDISCPILOT01"	"01-701-1356"	1356	NA	NA	NA	NA	NA	"2014-05-28"	NA	NA	701	54	"YEARS"	"F"	"WHITE"	"HISPANIC OR LATINO"	"Scrnfail"	"Screen Failure"	"Scrnfail"	"Screen Failure"	"USA"	"2014-04-01"	NA	"Screen Failure"	"Screen Failure"	NA	NA	NA	NA	NA	NA	NA	"2014-04-01"	NA	NA	NA	NA	NA	NA	NA	NA	"18-64"	NA	"White"	NA	NA	NA	NA	NA
"39"	"CDISCPILOT01"	"01-701-1360"	1360	"2013-07-31"	"2013-08-14"	"2013-07-31"	"2013-08-05"	NA	"2014-02-11"	NA	NA	701	67	"YEARS"	"M"	"WHITE"	"NOT HISPANIC OR LATINO"	"Xan_Hi"	"Xanomeline High Dose"	"Xan_Lo"	"Xanomeline Low Dose"	"USA"	"2013-07-24"	-7	"Xanomeline High Dose"	"Xanomeline Low Dose"	"2013-07-31T00:00:00Z"	"H"	"2013-08-05T23:59:59Z"	"H"	"2013-07-31"	"2013-08-05"	6	NA	"2013-08-14"	"DISCONTINUED"	"2014-02-11"	"2013-07-31"	NA	NA	NA	"2013-08-14"	">=65"	"Y"	"White"	NA	NA	NA	NA	NA
"40"	"CDISCPILOT01"	"01-701-1363"	1363	"2013-05-30"	"2013-11-27"	"2013-05-30"	"2013-11-27"	NA	"2013-11-27T10:00"	NA	NA	701	81	"YEARS"	"F"	"BLACK OR AFRICAN AMERICAN"	"NOT HISPANIC OR LATINO"	"Pbo"	"Placebo"	"Pbo"	"Placebo"	"USA"	"2013-05-20"	-10	"Placebo"	"Placebo"	"2013-05-30T00:00:00Z"	"H"	"2013-11-27T23:59:59Z"	"H"	"2013-05-30"	"2013-11-27"	182	NA	"2013-11-27"	"COMPLETED"	NA	"2013-05-30"	NA	NA	NA	"2013-11-27"	">=65"	"Y"	"Non-white"	NA	NA	NA	NA	NA
"41"	"CDISCPILOT01"	"01-701-1369"	1369	NA	NA	NA	NA	NA	"2013-09-30"	NA	NA	701	74	"YEARS"	"M"	"WHITE"	"NOT HISPANIC OR LATINO"	"Scrnfail"	"Screen Failure"	"Scrnfail"	"Screen Failure"	"USA"	"2013-09-18"	NA	"Screen Failure"	"Screen Failure"	NA	NA	NA	NA	NA	NA	NA	"2013-09-18"	NA	NA	NA	NA	NA	NA	NA	NA	">=65"	NA	"White"	NA	NA	NA	NA	NA
"42"	"CDISCPILOT01"	"01-701-1383"	1383	"2013-02-04"	"2013-08-06"	"2013-02-04"	"2013-08-06"	NA	"2013-08-06T12:00"	NA	NA	701	72	"YEARS"	"F"	"WHITE"	"NOT HISPANIC OR LATINO"	"Xan_Hi"	"Xanomeline High Dose"	"Xan_Hi"	"Xanomeline High Dose"	"USA"	"2013-01-22"	-13	"Xanomeline High Dose"	"Xanomeline High Dose"	"2013-02-04T00:00:00Z"	"H"	"2013-08-06T23:59:59Z"	"H"	"2013-02-04"	"2013-08-06"	184	NA	"2013-08-06"	"COMPLETED"	NA	"2013-02-04"	NA	NA	NA	"2013-08-06"	">=65"	"Y"	"White"	NA	NA	NA	NA	NA
"43"	"CDISCPILOT01"	"01-701-1386"	1386	NA	NA	NA	NA	NA	"2014-01-07"	NA	NA	701	71	"YEARS"	"M"	"WHITE"	"NOT HISPANIC OR LATINO"	"Scrnfail"	"Screen Failure"	"Scrnfail"	"Screen Failure"	"USA"	"2013-12-28"	NA	"Screen Failure"	"Screen Failure"	NA	NA	NA	NA	NA	NA	NA	"2013-12-28"	NA	NA	NA	NA	NA	NA	NA	NA	">=65"	NA	"White"	NA	NA	NA	NA	NA
"44"	"CDISCPILOT01"	"01-701-1387"	1387	"2014-03-12"	"2014-03-25"	"2014-03-12"	"2014-03-25"	NA	"2014-08-27"	NA	NA	701	87	"YEARS"	"F"	"WHITE"	"NOT HISPANIC OR LATINO"	"Pbo"	"Placebo"	"Pbo"	"Placebo"	"USA"	"2014-02-23"	-17	"Placebo"	"Placebo"	"2014-03-12T00:00:00Z"	"H"	"2014-03-25T23:59:59Z"	"H"	"2014-03-12"	"2014-03-25"	14	NA	"2014-03-25"	"DISCONTINUED"	"2014-08-27"	"2014-03-12"	NA	NA	NA	"2014-03-25"	">=65"	"Y"	"White"	NA	NA	NA	NA	NA
"45"	"CDISCPILOT01"	"01-701-1392"	1392	"2012-10-28"	"2013-04-28"	"2012-10-28"	"2013-04-28"	NA	"2013-04-28T11:30"	NA	NA	701	78	"YEARS"	"M"	"WHITE"	"NOT HISPANIC OR LATINO"	"Pbo"	"Placebo"	"Pbo"	"Placebo"	"USA"	"2012-10-17"	-11	"Placebo"	"Placebo"	"2012-10-28T00:00:00Z"	"H"	"2013-04-28T23:59:59Z"	"H"	"2012-10-28"	"2013-04-28"	183	NA	"2013-04-28"	"COMPLETED"	NA	"2012-10-28"	NA	NA	NA	"2013-04-28"	">=65"	"Y"	"White"	NA	NA	NA	NA	NA
"46"	"CDISCPILOT01"	"01-701-1411"	1411	NA	NA	NA	NA	NA	"2012-11-24"	NA	NA	701	76	"YEARS"	"M"	"BLACK OR AFRICAN AMERICAN"	"NOT HISPANIC OR LATINO"	"Scrnfail"	"Screen Failure"	"Scrnfail"	"Screen Failure"	"USA"	"2012-11-14"	NA	"Screen Failure"	"Screen Failure"	NA	NA	NA	NA	NA	NA	NA	"2012-11-14"	NA	NA	NA	NA	NA	NA	NA	NA	">=65"	NA	"Non-white"	NA	NA	NA	NA	NA
"47"	"CDISCPILOT01"	"01-701-1415"	1415	"2013-09-23"	"2014-03-24"	"2013-09-23"	"2014-03-24"	NA	"2014-03-24T12:34"	NA	NA	701	85	"YEARS"	"M"	"WHITE"	"NOT HISPANIC OR LATINO"	"Pbo"	"Placebo"	"Pbo"	"Placebo"	"USA"	"2013-09-15"	-8	"Placebo"	"Placebo"	"2013-09-23T00:00:00Z"	"H"	"2014-03-24T23:59:59Z"	"H"	"2013-09-23"	"2014-03-24"	183	NA	"2014-03-24"	"COMPLETED"	NA	"2013-09-23"	NA	NA	NA	"2014-03-24"	">=65"	"Y"	"White"	NA	NA	NA	NA	NA
"48"	"CDISCPILOT01"	"01-701-1429"	1429	"2013-03-19"	"2013-04-30"	"2013-03-19"	"2013-04-30"	NA	"2013-04-30T12:22"	NA	NA	701	84	"YEARS"	"F"	"WHITE"	"NOT HISPANIC OR LATINO"	"Xan_Lo"	"Xanomeline Low Dose"	"Xan_Lo"	"Xanomeline Low Dose"	"USA"	"2013-02-25"	-22	"Xanomeline Low Dose"	"Xanomeline Low Dose"	"2013-03-19T00:00:00Z"	"H"	"2013-04-30T23:59:59Z"	"H"	"2013-03-19"	"2013-04-30"	43	NA	"2013-04-30"	"DISCONTINUED"	NA	"2013-03-19"	NA	NA	NA	"2013-04-30"	">=65"	"Y"	"White"	NA	NA	NA	NA	NA
"49"	"CDISCPILOT01"	"01-701-1440"	1440	"2013-08-08"	"2014-02-05"	"2013-08-08"	"2014-02-05"	NA	"2014-02-05T11:25"	NA	NA	701	70	"YEARS"	"M"	"WHITE"	"NOT HISPANIC OR LATINO"	"Pbo"	"Placebo"	"Pbo"	"Placebo"	"USA"	"2013-07-24"	-15	"Placebo"	"Placebo"	"2013-08-08T00:00:00Z"	"H"	"2014-02-05T23:59:59Z"	"H"	"2013-08-08"	"2014-02-05"	182	NA	"2014-02-05"	"COMPLETED"	NA	"2013-08-08"	NA	NA	NA	"2014-02-05"	">=65"	"Y"	"White"	NA	NA	NA	NA	NA
"50"	"CDISCPILOT01"	"01-701-1442"	1442	"2013-10-26"	"2014-04-26"	"2013-10-26"	"2014-04-26"	NA	"2014-04-26T10:00"	NA	NA	701	57	"YEARS"	"F"	"BLACK OR AFRICAN AMERICAN"	"NOT HISPANIC OR LATINO"	"Xan_Lo"	"Xanomeline Low Dose"	"Xan_Lo"	"Xanomeline Low Dose"	"USA"	"2013-10-17"	-9	"Xanomeline Low Dose"	"Xanomeline Low Dose"	"2013-10-26T00:00:00Z"	"H"	"2014-04-26T23:59:59Z"	"H"	"2013-10-26"	"2014-04-26"	183	NA	"2014-04-26"	"COMPLETED"	NA	"2013-10-26"	NA	NA	NA	"2014-04-26"	"18-64"	"Y"	"Non-white"	NA	NA	NA	NA	NA
"51"	"CDISCPILOT01"	"01-701-1444"	1444	"2013-01-05"	"2013-02-13"	"2013-01-05"	"2013-02-12"	NA	"2013-06-20"	NA	NA	701	63	"YEARS"	"M"	"WHITE"	"HISPANIC OR LATINO"	"Xan_Hi"	"Xanomeline High Dose"	"Xan_Hi"	"Xanomeline High Dose"	"USA"	"2012-12-31"	-5	"Xanomeline High Dose"	"Xanomeline High Dose"	"2013-01-05T00:00:00Z"	"H"	"2013-02-12T23:59:59Z"	"H"	"2013-01-05"	"2013-02-12"	39	NA	"2013-02-13"	"DISCONTINUED"	"2013-06-20"	"2013-01-05"	NA	NA	NA	"2013-02-13"	"18-64"	"Y"	"White"	NA	NA	NA	NA	NA
"52"	"CDISCPILOT01"	"01-702-1082"	1082	"2013-07-26"	"2013-11-17"	"2013-07-26"	"2013-10-13"	NA	"2013-11-17T12:20"	NA	NA	702	84	"YEARS"	"F"	"WHITE"	"NOT HISPANIC OR LATINO"	"Xan_Lo"	"Xanomeline Low Dose"	"Xan_Lo"	"Xanomeline Low Dose"	"USA"	"2013-07-03"	-23	"Xanomeline Low Dose"	"Xanomeline Low Dose"	"2013-07-26T00:00:00Z"	"H"	"2013-10-13T23:59:59Z"	"H"	"2013-07-26"	"2013-10-13"	80	NA	"2013-11-17"	"DISCONTINUED"	NA	"2013-07-26"	NA	NA	NA	"2013-11-17"	">=65"	"Y"	"White"	NA	NA	NA	NA	NA
"53"	"CDISCPILOT01"	"01-703-1042"	1042	"2013-03-02"	"2013-08-31"	"2013-03-02"	"2013-08-31"	NA	"2013-08-31T11:00"	NA	NA	703	64	"YEARS"	"M"	"WHITE"	"NOT HISPANIC OR LATINO"	"Pbo"	"Placebo"	"Pbo"	"Placebo"	"USA"	"2013-02-23"	-7	"Placebo"	"Placebo"	"2013-03-02T00:00:00Z"	"H"	"2013-08-31T23:59:59Z"	"H"	"2013-03-02"	"2013-08-31"	183	NA	"2013-08-31"	"COMPLETED"	NA	"2013-03-02"	NA	NA	NA	"2013-08-31"	"18-64"	"Y"	"White"	NA	NA	NA	NA	NA
"54"	"CDISCPILOT01"	"01-703-1076"	1076	"2013-10-25"	"2013-12-24"	"2013-10-25"	"2013-12-24"	NA	"2014-01-21"	NA	NA	703	69	"YEARS"	"M"	"WHITE"	"NOT HISPANIC OR LATINO"	"Xan_Hi"	"Xanomeline High Dose"	"Xan_Hi"	"Xanomeline High Dose"	"USA"	"2013-10-17"	-8	"Xanomeline High Dose"	"Xanomeline High Dose"	"2013-10-25T00:00:00Z"	"H"	"2013-12-24T23:59:59Z"	"H"	"2013-10-25"	"2013-12-24"	61	NA	"2013-12-24"	"DISCONTINUED"	NA	"2013-10-25"	NA	NA	NA	"2013-12-24"	">=65"	"Y"	"White"	NA	NA	NA	NA	NA
"55"	"CDISCPILOT01"	"01-703-1086"	1086	"2012-09-02"	"2012-12-24"	"2012-09-02"	"2012-12-04"	NA	"2013-03-26"	NA	NA	703	71	"YEARS"	"M"	"WHITE"	"NOT HISPANIC OR LATINO"	"Xan_Lo"	"Xanomeline Low Dose"	"Xan_Lo"	"Xanomeline Low Dose"	"USA"	"2012-08-22"	-11	"Xanomeline Low Dose"	"Xanomeline Low Dose"	"2012-09-02T00:00:00Z"	"H"	"2012-12-04T23:59:59Z"	"H"	"2012-09-02"	"2012-12-04"	94	NA	"2012-12-24"	"DISCONTINUED"	"2013-03-26"	"2012-09-02"	NA	NA	NA	"2013-01-02"	">=65"	"Y"	"White"	NA	NA	NA	NA	NA
"56"	"CDISCPILOT01"	"01-703-1096"	1096	"2013-01-25"	"2013-03-29"	"2013-01-25"	"2013-03-16"	NA	"2013-03-29"	NA	NA	703	81	"YEARS"	"F"	"WHITE"	"NOT HISPANIC OR LATINO"	"Pbo"	"Placebo"	"Pbo"	"Placebo"	"USA"	"2012-12-19"	-37	"Placebo"	"Placebo"	"2013-01-25T00:00:00Z"	"H"	"2013-03-16T23:59:59Z"	"H"	"2013-01-25"	"2013-03-16"	51	NA	"2013-03-29"	"DISCONTINUED"	NA	"2013-01-25"	NA	NA	NA	"2013-03-16"	">=65"	"Y"	"White"	NA	NA	NA	NA	NA
"57"	"CDISCPILOT01"	"01-703-1100"	1100	"2013-03-13"	"2013-09-14"	"2013-03-13"	"2013-09-14"	NA	"2013-09-14T15:00"	NA	NA	703	84	"YEARS"	"F"	"WHITE"	"NOT HISPANIC OR LATINO"	"Pbo"	"Placebo"	"Pbo"	"Placebo"	"USA"	"2013-02-28"	-13	"Placebo"	"Placebo"	"2013-03-13T00:00:00Z"	"H"	"2013-09-14T23:59:59Z"	"H"	"2013-03-13"	"2013-09-14"	186	NA	"2013-09-14"	"COMPLETED"	NA	"2013-03-13"	NA	NA	NA	"2013-09-14"	">=65"	"Y"	"White"	NA	NA	NA	NA	NA
"58"	"CDISCPILOT01"	"01-703-1119"	1119	"2013-02-20"	"2013-06-13"	"2013-02-20"	"2013-06-13"	NA	"2013-08-24"	NA	NA	703	81	"YEARS"	"F"	"WHITE"	"NOT HISPANIC OR LATINO"	"Xan_Lo"	"Xanomeline Low Dose"	"Xan_Lo"	"Xanomeline Low Dose"	"USA"	"2013-02-02"	-18	"Xanomeline Low Dose"	"Xanomeline Low Dose"	"2013-02-20T00:00:00Z"	"H"	"2013-06-13T23:59:59Z"	"H"	"2013-02-20"	"2013-06-13"	114	NA	"2013-06-13"	"DISCONTINUED"	"2013-08-24"	"2013-02-20"	NA	NA	NA	"2013-06-13"	">=65"	"Y"	"White"	NA	NA	NA	NA	NA
"59"	"CDISCPILOT01"	"01-703-1175"	1175	"2013-12-20"	"2013-12-31"	"2013-12-20"	"2013-12-26"	NA	"2013-12-31T13:15"	NA	NA	703	75	"YEARS"	"M"	"WHITE"	"NOT HISPANIC OR LATINO"	"Pbo"	"Placebo"	"Pbo"	"Placebo"	"USA"	"2013-12-13"	-7	"Placebo"	"Placebo"	"2013-12-20T00:00:00Z"	"H"	"2013-12-26T23:59:59Z"	"H"	"2013-12-20"	"2013-12-26"	7	NA	"2013-12-31"	"DISCONTINUED"	NA	"2013-12-20"	NA	NA	NA	"2013-12-31"	">=65"	"Y"	"White"	NA	NA	NA	NA	NA
"60"	"CDISCPILOT01"	"01-703-1182"	1182	"2013-10-17"	"2013-12-12"	"2013-10-17"	"2013-12-11"	NA	"2014-01-14"	NA	NA	703	84	"YEARS"	"M"	"WHITE"	"NOT HISPANIC OR LATINO"	"Xan_Lo"	"Xanomeline Low Dose"	"Xan_Lo"	"Xanomeline Low Dose"	"USA"	"2013-10-08"	-9	"Xanomeline Low Dose"	"Xanomeline Low Dose"	"2013-10-17T00:00:00Z"	"H"	"2013-12-11T23:59:59Z"	"H"	"2013-10-17"	"2013-12-11"	56	NA	"2013-12-12"	"DISCONTINUED"	NA	"2013-10-17"	NA	NA	NA	"2013-12-12"	">=65"	"Y"	"White"	NA	NA	NA	NA	NA
"61"	"CDISCPILOT01"	"01-703-1197"	1197	"2013-06-16"	"2013-07-22"	"2013-06-16"	"2013-06-29"	NA	"2013-07-22"	NA	NA	703	76	"YEARS"	"F"	"BLACK OR AFRICAN AMERICAN"	"NOT HISPANIC OR LATINO"	"Xan_Lo"	"Xanomeline Low Dose"	"Xan_Lo"	"Xanomeline Low Dose"	"USA"	"2013-06-01"	-15	"Xanomeline Low Dose"	"Xanomeline Low Dose"	"2013-06-16T00:00:00Z"	"H"	"2013-06-29T23:59:59Z"	"H"	"2013-06-16"	"2013-06-29"	14	NA	"2013-07-22"	"DISCONTINUED"	NA	"2013-06-16"	NA	NA	NA	"2013-06-29"	">=65"	"Y"	"Non-white"	NA	NA	NA	NA	NA
"62"	"CDISCPILOT01"	"01-703-1210"	1210	"2013-03-16"	"2013-09-06"	"2013-03-16"	"2013-09-06"	NA	"2013-09-06T13:30"	NA	NA	703	72	"YEARS"	"F"	"WHITE"	"NOT HISPANIC OR LATINO"	"Pbo"	"Placebo"	"Pbo"	"Placebo"	"USA"	"2013-03-08"	-8	"Placebo"	"Placebo"	"2013-03-16T00:00:00Z"	"H"	"2013-09-06T23:59:59Z"	"H"	"2013-03-16"	"2013-09-06"	175	NA	"2013-09-06"	"COMPLETED"	NA	"2013-03-16"	NA	NA	NA	"2013-09-06"	">=65"	"Y"	"White"	NA	NA	NA	NA	NA
"63"	"CDISCPILOT01"	"01-703-1258"	1258	"2012-07-20"	"2013-01-21"	"2012-07-20"	"2013-01-11"	NA	"2013-01-28"	NA	NA	703	78	"YEARS"	"F"	"WHITE"	"NOT HISPANIC OR LATINO"	"Xan_Hi"	"Xanomeline High Dose"	"Xan_Hi"	"Xanomeline High Dose"	"USA"	"2012-07-10"	-10	"Xanomeline High Dose"	"Xanomeline High Dose"	"2012-07-20T00:00:00Z"	"H"	"2013-01-11T23:59:59Z"	"H"	"2012-07-20"	"2013-01-11"	176	NA	"2013-01-21"	"DISCONTINUED"	NA	"2012-07-20"	NA	NA	NA	"2013-01-11"	">=65"	"Y"	"White"	NA	NA	NA	NA	NA
"64"	"CDISCPILOT01"	"01-703-1279"	1279	"2013-05-13"	"2013-06-22"	"2013-05-13"	"2013-06-03"	NA	"2013-06-22"	NA	NA	703	72	"YEARS"	"F"	"WHITE"	"NOT HISPANIC OR LATINO"	"Xan_Lo"	"Xanomeline Low Dose"	"Xan_Lo"	"Xanomeline Low Dose"	"USA"	"2013-04-27"	-16	"Xanomeline Low Dose"	"Xanomeline Low Dose"	"2013-05-13T00:00:00Z"	"H"	"2013-06-03T23:59:59Z"	"H"	"2013-05-13"	"2013-06-03"	22	NA	"2013-06-22"	"DISCONTINUED"	NA	"2013-05-13"	NA	NA	NA	"2013-06-03"	">=65"	"Y"	"White"	NA	NA	NA	NA	NA
"65"	"CDISCPILOT01"	"01-703-1295"	1295	"2013-11-21"	"2014-05-19"	"2013-11-21"	"2014-04-19"	NA	"2014-05-19T14:45"	NA	NA	703	88	"YEARS"	"F"	"WHITE"	"NOT HISPANIC OR LATINO"	"Xan_Hi"	"Xanomeline High Dose"	"Xan_Hi"	"Xanomeline High Dose"	"USA"	"2013-10-24"	-28	"Xanomeline High Dose"	"Xanomeline High Dose"	"2013-11-21T00:00:00Z"	"H"	"2014-04-19T23:59:59Z"	"H"	"2013-11-21"	"2014-04-19"	150	NA	"2014-05-19"	"DISCONTINUED"	NA	"2013-11-21"	NA	NA	NA	"2014-05-19"	">=65"	"Y"	"White"	NA	NA	NA	NA	NA
"66"	"CDISCPILOT01"	"01-703-1299"	1299	"2012-09-12"	"2013-03-13"	"2012-09-12"	"2013-03-13"	NA	"2013-03-27"	NA	NA	703	81	"YEARS"	"F"	"WHITE"	"NOT HISPANIC OR LATINO"	"Pbo"	"Placebo"	"Pbo"	"Placebo"	"USA"	"2012-09-07"	-5	"Placebo"	"Placebo"	"2012-09-12T00:00:00Z"	"H"	"2013-03-13T23:59:59Z"	"H"	"2012-09-12"	"2013-03-13"	183	NA	"2013-03-13"	"COMPLETED"	NA	"2012-09-12"	NA	NA	NA	"2013-03-13"	">=65"	"Y"	"White"	NA	NA	NA	NA	NA
"67"	"CDISCPILOT01"	"01-703-1335"	1335	"2014-03-17"	"2014-05-24"	"2014-03-17"	"2014-05-07"	NA	"2014-05-24T12:15"	NA	NA	703	67	"YEARS"	"F"	"BLACK OR AFRICAN AMERICAN"	"NOT HISPANIC OR LATINO"	"Xan_Hi"	"Xanomeline High Dose"	"Xan_Hi"	"Xanomeline High Dose"	"USA"	"2014-02-28"	-17	"Xanomeline High Dose"	"Xanomeline High Dose"	"2014-03-17T00:00:00Z"	"H"	"2014-05-07T23:59:59Z"	"H"	"2014-03-17"	"2014-05-07"	52	NA	"2014-05-24"	"DISCONTINUED"	NA	"2014-03-17"	NA	NA	NA	"2014-05-24"	">=65"	"Y"	"Non-white"	NA	NA	NA	NA	NA
"68"	"CDISCPILOT01"	"01-703-1379"	1379	"2013-09-22"	"2014-03-21"	"2013-09-22"	"2014-03-21"	NA	"2014-03-21T10:55"	NA	NA	703	81	"YEARS"	"F"	"BLACK OR AFRICAN AMERICAN"	"NOT HISPANIC OR LATINO"	"Xan_Lo"	"Xanomeline Low Dose"	"Xan_Lo"	"Xanomeline Low Dose"	"USA"	"2013-09-12"	-10	"Xanomeline Low Dose"	"Xanomeline Low Dose"	"2013-09-22T00:00:00Z"	"H"	"2014-03-21T23:59:59Z"	"H"	"2013-09-22"	"2014-03-21"	181	NA	"2014-03-21"	"COMPLETED"	NA	"2013-09-22"	NA	NA	NA	"2014-03-21"	">=65"	"Y"	"Non-white"	NA	NA	NA	NA	NA
"69"	"CDISCPILOT01"	"01-703-1396"	1396	NA	NA	NA	NA	NA	"2014-02-27"	NA	NA	703	84	"YEARS"	"M"	"ASIAN"	"NOT HISPANIC OR LATINO"	"Scrnfail"	"Screen Failure"	"Scrnfail"	"Screen Failure"	"USA"	"2014-02-09"	NA	"Screen Failure"	"Screen Failure"	NA	NA	NA	NA	NA	NA	NA	"2014-02-09"	NA	NA	NA	NA	NA	NA	NA	NA	">=65"	NA	"Non-white"	NA	NA	NA	NA	NA
"70"	"CDISCPILOT01"	"01-703-1403"	1403	"2012-12-12"	"2012-12-19"	"2012-12-12"	"2012-12-13"	NA	"2013-01-08"	NA	NA	703	67	"YEARS"	"M"	"WHITE"	"NOT HISPANIC OR LATINO"	"Xan_Hi"	"Xanomeline High Dose"	"Xan_Lo"	"Xanomeline Low Dose"	"USA"	"2012-12-05"	-7	"Xanomeline High Dose"	"Xanomeline Low Dose"	"2012-12-12T00:00:00Z"	"H"	"2012-12-13T23:59:59Z"	"H"	"2012-12-12"	"2012-12-13"	2	NA	"2012-12-19"	"DISCONTINUED"	NA	"2012-12-12"	NA	NA	NA	"2012-12-19"	">=65"	"Y"	"White"	NA	NA	NA	NA	NA
"71"	"CDISCPILOT01"	"01-703-1439"	1439	"2014-03-12"	"2014-09-11"	"2014-03-12"	"2014-09-11"	NA	"2014-09-11T12:40"	NA	NA	703	76	"YEARS"	"F"	"WHITE"	"NOT HISPANIC OR LATINO"	"Xan_Hi"	"Xanomeline High Dose"	"Xan_Hi"	"Xanomeline High Dose"	"USA"	"2014-03-04"	-8	"Xanomeline High Dose"	"Xanomeline High Dose"	"2014-03-12T00:00:00Z"	"H"	"2014-09-11T23:59:59Z"	"H"	"2014-03-12"	"2014-09-11"	184	NA	"2014-09-11"	"COMPLETED"	NA	"2014-03-12"	NA	NA	NA	"2014-09-11"	">=65"	"Y"	"White"	NA	NA	NA	NA	NA
"72"	"CDISCPILOT01"	"01-704-1008"	1008	"2013-01-13"	"2013-02-25"	"2013-01-13"	"2013-02-21"	NA	"2013-02-25T11:00"	NA	NA	704	76	"YEARS"	"F"	"WHITE"	"NOT HISPANIC OR LATINO"	"Xan_Hi"	"Xanomeline High Dose"	"Xan_Hi"	"Xanomeline High Dose"	"USA"	"2013-01-06"	-7	"Xanomeline High Dose"	"Xanomeline High Dose"	"2013-01-13T00:00:00Z"	"H"	"2013-02-21T23:59:59Z"	"H"	"2013-01-13"	"2013-02-21"	40	NA	"2013-02-25"	"DISCONTINUED"	NA	"2013-01-13"	NA	NA	NA	"2013-02-25"	">=65"	"Y"	"White"	NA	NA	NA	NA	NA
"73"	"CDISCPILOT01"	"01-704-1009"	1009	"2013-08-27"	"2013-10-02"	"2013-08-27"	"2013-09-25"	NA	"2013-10-02"	NA	NA	704	83	"YEARS"	"M"	"WHITE"	"NOT HISPANIC OR LATINO"	"Xan_Lo"	"Xanomeline Low Dose"	"Xan_Lo"	"Xanomeline Low Dose"	"USA"	"2013-08-20"	-7	"Xanomeline Low Dose"	"Xanomeline Low Dose"	"2013-08-27T00:00:00Z"	"H"	"2013-09-25T23:59:59Z"	"H"	"2013-08-27"	"2013-09-25"	30	NA	"2013-10-02"	"DISCONTINUED"	NA	"2013-08-27"	NA	NA	NA	"2013-09-25"	">=65"	"Y"	"White"	NA	NA	NA	NA	NA
"74"	"CDISCPILOT01"	"01-704-1010"	1010	"2014-02-21"	"2014-07-09"	"2014-02-21"	"2014-07-08"	NA	"2014-07-09T11:00"	NA	NA	704	80	"YEARS"	"M"	"WHITE"	"NOT HISPANIC OR LATINO"	"Pbo"	"Placebo"	"Pbo"	"Placebo"	"USA"	"2014-02-08"	-13	"Placebo"	"Placebo"	"2014-02-21T00:00:00Z"	"H"	"2014-07-08T23:59:59Z"	"H"	"2014-02-21"	"2014-07-08"	138	NA	"2014-07-09"	"DISCONTINUED"	NA	"2014-02-21"	NA	NA	NA	"2014-07-09"	">=65"	"Y"	"White"	NA	NA	NA	NA	NA
"75"	"CDISCPILOT01"	"01-704-1017"	1017	"2013-10-06"	"2013-11-24"	"2013-10-06"	"2013-11-18"	NA	"2013-12-06"	NA	NA	704	77	"YEARS"	"M"	"WHITE"	"NOT HISPANIC OR LATINO"	"Xan_Hi"	"Xanomeline High Dose"	"Xan_Hi"	"Xanomeline High Dose"	"USA"	"2013-09-20"	-16	"Xanomeline High Dose"	"Xanomeline High Dose"	"2013-10-06T00:00:00Z"	"H"	"2013-11-18T23:59:59Z"	"H"	"2013-10-06"	"2013-11-18"	44	NA	"2013-11-24"	"DISCONTINUED"	NA	"2013-10-06"	NA	NA	NA	"2013-11-18"	">=65"	"Y"	"White"	NA	NA	NA	NA	NA
"76"	"CDISCPILOT01"	"01-704-1025"	1025	"2013-09-27"	"2013-11-29"	"2013-09-27"	"2013-10-24"	NA	"2013-11-29T12:00"	NA	NA	704	81	"YEARS"	"F"	"WHITE"	"NOT HISPANIC OR LATINO"	"Xan_Lo"	"Xanomeline Low Dose"	"Xan_Lo"	"Xanomeline Low Dose"	"USA"	"2013-09-18"	-9	"Xanomeline Low Dose"	"Xanomeline Low Dose"	"2013-09-27T00:00:00Z"	"H"	"2013-10-24T23:59:59Z"	"H"	"2013-09-27"	"2013-10-24"	28	NA	"2013-11-29"	"DISCONTINUED"	NA	"2013-09-27"	NA	NA	NA	"2013-11-29"	">=65"	"Y"	"White"	NA	NA	NA	NA	NA
"77"	"CDISCPILOT01"	"01-704-1065"	1065	"2013-10-24"	"2013-12-24"	"2013-10-24"	"2013-12-22"	NA	"2014-02-17"	NA	NA	704	75	"YEARS"	"M"	"WHITE"	"NOT HISPANIC OR LATINO"	"Xan_Hi"	"Xanomeline High Dose"	"Xan_Hi"	"Xanomeline High Dose"	"USA"	"2013-10-17"	-7	"Xanomeline High Dose"	"Xanomeline High Dose"	"2013-10-24T00:00:00Z"	"H"	"2013-12-22T23:59:59Z"	"H"	"2013-10-24"	"2013-12-22"	60	NA	"2013-12-24"	"DISCONTINUED"	NA	"2013-10-24"	NA	NA	NA	"2013-12-24"	">=65"	"Y"	"White"	NA	NA	NA	NA	NA
"78"	"CDISCPILOT01"	"01-704-1074"	1074	"2014-01-22"	"2014-03-31"	"2014-01-22"	"2014-03-20"	NA	"2014-03-31T10:30"	NA	NA	704	80	"YEARS"	"F"	"WHITE"	"NOT HISPANIC OR LATINO"	"Xan_Hi"	"Xanomeline High Dose"	"Xan_Hi"	"Xanomeline High Dose"	"USA"	"2014-01-19"	-3	"Xanomeline High Dose"	"Xanomeline High Dose"	"2014-01-22T00:00:00Z"	"H"	"2014-03-20T23:59:59Z"	"H"	"2014-01-22"	"2014-03-20"	58	NA	"2014-03-31"	"DISCONTINUED"	NA	"2014-01-22"	NA	NA	NA	"2014-03-31"	">=65"	"Y"	"White"	NA	NA	NA	NA	NA
"79"	"CDISCPILOT01"	"01-704-1093"	1093	"2013-03-15"	"2013-06-20"	"2013-03-15"	"2013-06-17"	NA	"2013-12-25"	NA	NA	704	79	"YEARS"	"M"	"WHITE"	"NOT HISPANIC OR LATINO"	"Xan_Hi"	"Xanomeline High Dose"	"Xan_Hi"	"Xanomeline High Dose"	"USA"	"2013-02-22"	-21	"Xanomeline High Dose"	"Xanomeline High Dose"	"2013-03-15T00:00:00Z"	"H"	"2013-06-17T23:59:59Z"	"H"	"2013-03-15"	"2013-06-17"	95	NA	"2013-06-20"	"DISCONTINUED"	"2013-12-25"	"2013-03-15"	NA	NA	NA	"2013-06-20"	">=65"	"Y"	"White"	NA	NA	NA	NA	NA
"80"	"CDISCPILOT01"	"01-704-1114"	1114	"2013-01-23"	"2013-07-08"	"2013-01-23"	"2013-07-07"	NA	"2013-07-08T09:56"	NA	NA	704	77	"YEARS"	"M"	"WHITE"	"NOT HISPANIC OR LATINO"	"Xan_Lo"	"Xanomeline Low Dose"	"Xan_Lo"	"Xanomeline Low Dose"	"USA"	"2013-01-09"	-14	"Xanomeline Low Dose"	"Xanomeline Low Dose"	"2013-01-23T00:00:00Z"	"H"	"2013-07-07T23:59:59Z"	"H"	"2013-01-23"	"2013-07-07"	166	NA	"2013-07-08"	"DISCONTINUED"	NA	"2013-01-23"	NA	NA	NA	"2013-07-08"	">=65"	"Y"	"White"	NA	NA	NA	NA	NA
"81"	"CDISCPILOT01"	"01-704-1120"	1120	"2013-12-02"	"2014-02-03"	"2013-12-02"	"2014-02-01"	NA	"2014-03-10"	NA	NA	704	71	"YEARS"	"F"	"WHITE"	"NOT HISPANIC OR LATINO"	"Xan_Lo"	"Xanomeline Low Dose"	"Xan_Lo"	"Xanomeline Low Dose"	"USA"	"2013-11-18"	-14	"Xanomeline Low Dose"	"Xanomeline Low Dose"	"2013-12-02T00:00:00Z"	"H"	"2014-02-01T23:59:59Z"	"H"	"2013-12-02"	"2014-02-01"	62	NA	"2014-02-03"	"DISCONTINUED"	NA	"2013-12-02"	NA	NA	NA	"2014-02-03"	">=65"	"Y"	"White"	NA	NA	NA	NA	NA
"82"	"CDISCPILOT01"	"01-704-1127"	1127	"2013-10-02"	"2014-03-31"	"2013-10-02"	"2014-03-31"	NA	"2014-03-31T11:30"	NA	NA	704	84	"YEARS"	"F"	"WHITE"	"NOT HISPANIC OR LATINO"	"Pbo"	"Placebo"	"Pbo"	"Placebo"	"USA"	"2013-09-16"	-16	"Placebo"	"Placebo"	"2013-10-02T00:00:00Z"	"H"	"2014-03-31T23:59:59Z"	"H"	"2013-10-02"	"2014-03-31"	181	NA	"2014-03-31"	"COMPLETED"	NA	"2013-10-02"	NA	NA	NA	"2014-03-31"	">=65"	"Y"	"White"	NA	NA	NA	NA	NA
"83"	"CDISCPILOT01"	"01-704-1135"	1135	"2013-10-31"	"2014-05-16"	"2013-10-31"	"2014-05-16"	NA	"2014-05-16T09:45"	NA	NA	704	74	"YEARS"	"F"	"WHITE"	"NOT HISPANIC OR LATINO"	"Xan_Lo"	"Xanomeline Low Dose"	"Xan_Lo"	"Xanomeline Low Dose"	"USA"	"2013-10-23"	-8	"Xanomeline Low Dose"	"Xanomeline Low Dose"	"2013-10-31T00:00:00Z"	"H"	"2014-05-16T23:59:59Z"	"H"	"2013-10-31"	"2014-05-16"	198	NA	"2014-05-16"	"COMPLETED"	NA	"2013-10-31"	NA	NA	NA	"2014-05-16"	">=65"	"Y"	"White"	NA	NA	NA	NA	NA
"84"	"CDISCPILOT01"	"01-704-1164"	1164	"2012-09-19"	"2013-04-04"	"2012-09-19"	"2013-04-04"	NA	"2013-04-04"	NA	NA	704	67	"YEARS"	"F"	"WHITE"	"NOT HISPANIC OR LATINO"	"Pbo"	"Placebo"	"Pbo"	"Placebo"	"USA"	"2012-09-11"	-8	"Placebo"	"Placebo"	"2012-09-19T00:00:00Z"	"H"	"2013-04-04T23:59:59Z"	"H"	"2012-09-19"	"2013-04-04"	198	NA	"2013-04-04"	"COMPLETED"	NA	"2012-09-19"	NA	NA	NA	"2013-04-04"	">=65"	"Y"	"White"	NA	NA	NA	NA	NA
"85"	"CDISCPILOT01"	"01-704-1218"	1218	"2012-11-19"	"2013-05-27"	"2012-11-19"	"2013-05-27"	NA	"2013-05-27T11:20"	NA	NA	704	81	"YEARS"	"F"	"WHITE"	"NOT HISPANIC OR LATINO"	"Xan_Lo"	"Xanomeline Low Dose"	"Xan_Lo"	"Xanomeline Low Dose"	"USA"	"2012-11-11"	-8	"Xanomeline Low Dose"	"Xanomeline Low Dose"	"2012-11-19T00:00:00Z"	"H"	"2013-05-27T23:59:59Z"	"H"	"2012-11-19"	"2013-05-27"	190	NA	"2013-05-27"	"COMPLETED"	NA	"2012-11-19"	NA	NA	NA	"2013-05-27"	">=65"	"Y"	"White"	NA	NA	NA	NA	NA
"86"	"CDISCPILOT01"	"01-704-1233"	1233	"2013-03-21"	"2013-07-14"	"2013-03-21"	"2013-04-04"	NA	"2013-07-14"	NA	NA	704	87	"YEARS"	"F"	"WHITE"	"NOT HISPANIC OR LATINO"	"Pbo"	"Placebo"	"Pbo"	"Placebo"	"USA"	"2013-03-08"	-13	"Placebo"	"Placebo"	"2013-03-21T00:00:00Z"	"H"	"2013-04-04T23:59:59Z"	"H"	"2013-03-21"	"2013-04-04"	15	NA	"2013-07-14"	"DISCONTINUED"	NA	"2013-03-21"	NA	NA	NA	"2013-07-11"	">=65"	"Y"	"White"	NA	NA	NA	NA	NA
"87"	"CDISCPILOT01"	"01-704-1241"	1241	"2013-08-25"	"2013-10-31"	"2013-08-25"	"2013-10-09"	NA	"2014-01-22"	NA	NA	704	86	"YEARS"	"M"	"WHITE"	"NOT HISPANIC OR LATINO"	"Xan_Hi"	"Xanomeline High Dose"	"Xan_Hi"	"Xanomeline High Dose"	"USA"	"2013-08-14"	-11	"Xanomeline High Dose"	"Xanomeline High Dose"	"2013-08-25T00:00:00Z"	"H"	"2013-10-09T23:59:59Z"	"H"	"2013-08-25"	"2013-10-09"	46	NA	"2013-10-31"	"DISCONTINUED"	NA	"2013-08-25"	NA	NA	NA	"2013-10-31"	">=65"	"Y"	"White"	NA	NA	NA	NA	NA
"88"	"CDISCPILOT01"	"01-704-1260"	1260	"2012-08-30"	"2013-01-18"	"2012-08-30"	"2012-11-04"	NA	"2013-01-18"	NA	NA	704	71	"YEARS"	"F"	"WHITE"	"NOT HISPANIC OR LATINO"	"Pbo"	"Placebo"	"Pbo"	"Placebo"	"USA"	"2012-08-23"	-7	"Placebo"	"Placebo"	"2012-08-30T00:00:00Z"	"H"	"2012-11-04T23:59:59Z"	"H"	"2012-08-30"	"2012-11-04"	67	NA	"2013-01-18"	"DISCONTINUED"	NA	"2012-08-30"	NA	NA	NA	"2012-11-04"	">=65"	"Y"	"White"	NA	NA	NA	NA	NA
"89"	"CDISCPILOT01"	"01-704-1266"	1266	"2013-10-13"	"2013-12-06"	"2013-10-13"	"2013-12-06"	NA	"2014-01-03"	NA	NA	704	82	"YEARS"	"M"	"WHITE"	"NOT HISPANIC OR LATINO"	"Xan_Hi"	"Xanomeline High Dose"	"Xan_Hi"	"Xanomeline High Dose"	"USA"	"2013-10-05"	-8	"Xanomeline High Dose"	"Xanomeline High Dose"	"2013-10-13T00:00:00Z"	"H"	"2013-12-06T23:59:59Z"	"H"	"2013-10-13"	"2013-12-06"	55	NA	"2013-12-06"	"DISCONTINUED"	NA	"2013-10-13"	NA	NA	NA	"2013-12-06"	">=65"	"Y"	"White"	NA	NA	NA	NA	NA
"90"	"CDISCPILOT01"	"01-704-1323"	1323	"2013-07-08"	"2013-08-08"	"2013-07-08"	"2013-08-05"	NA	"2013-10-01"	NA	NA	704	68	"YEARS"	"F"	"WHITE"	"NOT HISPANIC OR LATINO"	"Xan_Lo"	"Xanomeline Low Dose"	"Xan_Lo"	"Xanomeline Low Dose"	"USA"	"2013-06-13"	-25	"Xanomeline Low Dose"	"Xanomeline Low Dose"	"2013-07-08T00:00:00Z"	"H"	"2013-08-05T23:59:59Z"	"H"	"2013-07-08"	"2013-08-05"	29	NA	"2013-08-08"	"DISCONTINUED"	NA	"2013-07-08"	NA	NA	NA	"2013-08-05"	">=65"	"Y"	"White"	NA	NA	NA	NA	NA
"91"	"CDISCPILOT01"	"01-704-1325"	1325	"2014-04-23"	"2014-08-06"	"2014-04-23"	"2014-07-04"	NA	"2014-08-06T13:30"	NA	NA	704	81	"YEARS"	"M"	"WHITE"	"NOT HISPANIC OR LATINO"	"Xan_Lo"	"Xanomeline Low Dose"	"Xan_Lo"	"Xanomeline Low Dose"	"USA"	"2014-04-16"	-7	"Xanomeline Low Dose"	"Xanomeline Low Dose"	"2014-04-23T00:00:00Z"	"H"	"2014-07-04T23:59:59Z"	"H"	"2014-04-23"	"2014-07-04"	73	NA	"2014-08-06"	"DISCONTINUED"	NA	"2014-04-23"	NA	NA	NA	"2014-08-06"	">=65"	"Y"	"White"	NA	NA	NA	NA	NA
"92"	"CDISCPILOT01"	"01-704-1332"	1332	"2013-12-09"	"2014-02-16"	"2013-12-09"	"2014-02-14"	NA	"2014-02-24"	NA	NA	704	80	"YEARS"	"M"	"WHITE"	"NOT HISPANIC OR LATINO"	"Xan_Hi"	"Xanomeline High Dose"	"Xan_Hi"	"Xanomeline High Dose"	"USA"	"2013-11-24"	-15	"Xanomeline High Dose"	"Xanomeline High Dose"	"2013-12-09T00:00:00Z"	"H"	"2014-02-14T23:59:59Z"	"H"	"2013-12-09"	"2014-02-14"	68	NA	"2014-02-16"	"DISCONTINUED"	NA	"2013-12-09"	NA	NA	NA	"2014-02-16"	">=65"	"Y"	"White"	NA	NA	NA	NA	NA
"93"	"CDISCPILOT01"	"01-704-1351"	1351	"2013-10-12"	"2014-04-18"	"2013-10-12"	"2014-04-18"	NA	"2014-04-18T10:30"	NA	NA	704	70	"YEARS"	"M"	"WHITE"	"NOT HISPANIC OR LATINO"	"Pbo"	"Placebo"	"Pbo"	"Placebo"	"USA"	"2013-09-26"	-16	"Placebo"	"Placebo"	"2013-10-12T00:00:00Z"	"H"	"2014-04-18T23:59:59Z"	"H"	"2013-10-12"	"2014-04-18"	189	NA	"2014-04-18"	"COMPLETED"	NA	"2013-10-12"	NA	NA	NA	"2014-04-18"	">=65"	"Y"	"White"	NA	NA	NA	NA	NA
"94"	"CDISCPILOT01"	"01-704-1388"	1388	"2012-12-07"	"2013-06-19"	"2012-12-07"	"2013-06-11"	NA	"2013-06-19T12:30"	NA	NA	704	81	"YEARS"	"M"	"WHITE"	"NOT HISPANIC OR LATINO"	"Pbo"	"Placebo"	"Pbo"	"Placebo"	"USA"	"2012-11-28"	-9	"Placebo"	"Placebo"	"2012-12-07T00:00:00Z"	"H"	"2013-06-11T23:59:59Z"	"H"	"2012-12-07"	"2013-06-11"	187	NA	"2013-06-19"	"COMPLETED"	NA	"2012-12-07"	NA	NA	NA	"2013-06-19"	">=65"	"Y"	"White"	NA	NA	NA	NA	NA
"95"	"CDISCPILOT01"	"01-704-1435"	1435	"2012-11-17"	"2013-01-12"	"2012-11-17"	"2013-01-09"	NA	"2013-01-12T12:00"	NA	NA	704	74	"YEARS"	"M"	"WHITE"	"NOT HISPANIC OR LATINO"	"Pbo"	"Placebo"	"Pbo"	"Placebo"	"USA"	"2012-11-01"	-16	"Placebo"	"Placebo"	"2012-11-17T00:00:00Z"	"H"	"2013-01-09T23:59:59Z"	"H"	"2012-11-17"	"2013-01-09"	54	NA	"2013-01-12"	"DISCONTINUED"	NA	"2012-11-17"	NA	NA	NA	"2013-01-12"	">=65"	"Y"	"White"	NA	NA	NA	NA	NA
"96"	"CDISCPILOT01"	"01-704-1445"	1445	"2014-05-11"	"2014-11-01"	"2014-05-11"	"2014-11-01"	NA	"2014-11-01"	"2014-11-01"	"Y"	704	75	"YEARS"	"M"	"WHITE"	"NOT HISPANIC OR LATINO"	"Pbo"	"Placebo"	"Pbo"	"Placebo"	"USA"	"2014-05-01"	-10	"Placebo"	"Placebo"	"2014-05-11T00:00:00Z"	"H"	"2014-11-01T23:59:59Z"	"H"	"2014-05-11"	"2014-11-01"	175	NA	"2014-11-01"	"DISCONTINUED"	NA	"2014-05-11"	"2014-11-01"	175	0	"2014-11-01"	">=65"	"Y"	"White"	NA	"<= 30"	"Y"	NA	NA
"97"	"CDISCPILOT01"	"01-705-1011"	1011	NA	NA	NA	NA	NA	"2013-09-13"	NA	NA	705	75	"YEARS"	"F"	"WHITE"	"NOT HISPANIC OR LATINO"	"Scrnfail"	"Screen Failure"	"Scrnfail"	"Screen Failure"	"USA"	"2013-09-01"	NA	"Screen Failure"	"Screen Failure"	NA	NA	NA	NA	NA	NA	NA	"2013-09-01"	NA	NA	NA	NA	NA	NA	NA	NA	">=65"	NA	"White"	NA	NA	NA	NA	NA
"98"	"CDISCPILOT01"	"01-705-1018"	1018	"2013-07-05"	"2013-07-12"	"2013-07-05"	NA	NA	"2013-07-12"	NA	NA	705	69	"YEARS"	"F"	"WHITE"	"NOT HISPANIC OR LATINO"	"Pbo"	"Placebo"	"Pbo"	"Placebo"	"USA"	"2013-06-30"	-5	"Placebo"	"Placebo"	"2013-07-05T00:00:00Z"	"H"	NA	NA	"2013-07-05"	NA	NA	NA	"2013-07-12"	"DISCONTINUED"	NA	"2013-07-05"	NA	NA	NA	"2013-06-30"	">=65"	"Y"	"White"	NA	NA	NA	NA	NA
"99"	"CDISCPILOT01"	"01-705-1031"	1031	"2013-11-27"	"2014-05-11"	"2013-11-27"	"2013-12-18"	NA	"2014-05-11T09:55"	NA	NA	705	56	"YEARS"	"F"	"WHITE"	"HISPANIC OR LATINO"	"Xan_Lo"	"Xanomeline Low Dose"	"Xan_Lo"	"Xanomeline Low Dose"	"USA"	"2013-11-17"	-10	"Xanomeline Low Dose"	"Xanomeline Low Dose"	"2013-11-27T00:00:00Z"	"H"	"2013-12-18T23:59:59Z"	"H"	"2013-11-27"	"2013-12-18"	22	NA	"2014-05-11"	"DISCONTINUED"	NA	"2013-11-27"	NA	NA	NA	"2014-05-11"	"18-64"	"Y"	"White"	NA	NA	NA	NA	NA
"100"	"CDISCPILOT01"	"01-705-1058"	1058	NA	NA	NA	NA	NA	"2013-12-06"	NA	NA	705	89	"YEARS"	"M"	"WHITE"	"NOT HISPANIC OR LATINO"	"Scrnfail"	"Screen Failure"	"Scrnfail"	"Screen Failure"	"USA"	"2013-12-02"	NA	"Screen Failure"	"Screen Failure"	NA	NA	NA	NA	NA	NA	NA	"2013-12-02"	NA	NA	NA	NA	NA	NA	NA	NA	">=65"	NA	"White"	NA	NA	NA	NA	NA
"101"	"CDISCPILOT01"	"01-705-1059"	1059	"2013-08-05"	"2013-12-05"	"2013-08-05"	"2013-12-05"	NA	"2014-02-06"	NA	NA	705	66	"YEARS"	"F"	"WHITE"	"NOT HISPANIC OR LATINO"	"Pbo"	"Placebo"	"Pbo"	"Placebo"	"USA"	"2013-08-02"	-3	"Placebo"	"Placebo"	"2013-08-05T00:00:00Z"	"H"	"2013-12-05T23:59:59Z"	"H"	"2013-08-05"	"2013-12-05"	123	NA	"2013-12-05"	"DISCONTINUED"	"2014-02-06"	"2013-08-05"	NA	NA	NA	"2013-12-05"	">=65"	"Y"	"White"	NA	NA	NA	NA	NA
"102"	"CDISCPILOT01"	"01-705-1112"	1112	NA	NA	NA	NA	NA	"2014-02-24"	NA	NA	705	78	"YEARS"	"M"	"WHITE"	"NOT HISPANIC OR LATINO"	"Scrnfail"	"Screen Failure"	"Scrnfail"	"Screen Failure"	"USA"	"2014-02-23"	NA	"Screen Failure"	"Screen Failure"	NA	NA	NA	NA	NA	NA	NA	"2014-02-23"	NA	NA	NA	NA	NA	NA	NA	NA	">=65"	NA	"White"	NA	NA	NA	NA	NA
"103"	"CDISCPILOT01"	"01-705-1186"	1186	"2014-01-08"	"2014-02-07"	"2014-01-08"	"2014-01-26"	NA	"2014-02-07T15:20"	NA	NA	705	84	"YEARS"	"F"	"WHITE"	"NOT HISPANIC OR LATINO"	"Pbo"	"Placebo"	"Pbo"	"Placebo"	"USA"	"2014-01-03"	-5	"Placebo"	"Placebo"	"2014-01-08T00:00:00Z"	"H"	"2014-01-26T23:59:59Z"	"H"	"2014-01-08"	"2014-01-26"	19	NA	"2014-02-07"	"DISCONTINUED"	NA	"2014-01-08"	NA	NA	NA	"2014-02-07"	">=65"	"Y"	"White"	NA	NA	NA	NA	NA
"104"	"CDISCPILOT01"	"01-705-1199"	1199	"2013-09-16"	"2013-09-29"	"2013-09-16"	"2013-09-28"	NA	"2013-09-29T10:30"	NA	NA	705	87	"YEARS"	"M"	"WHITE"	"NOT HISPANIC OR LATINO"	"Xan_Lo"	"Xanomeline Low Dose"	"Xan_Lo"	"Xanomeline Low Dose"	"USA"	"2013-09-11"	-5	"Xanomeline Low Dose"	"Xanomeline Low Dose"	"2013-09-16T00:00:00Z"	"H"	"2013-09-28T23:59:59Z"	"H"	"2013-09-16"	"2013-09-28"	13	NA	"2013-09-29"	"DISCONTINUED"	NA	"2013-09-16"	NA	NA	NA	"2013-09-29"	">=65"	"Y"	"White"	NA	NA	NA	NA	NA
"105"	"CDISCPILOT01"	"01-705-1243"	1243	NA	NA	NA	NA	NA	"2013-03-04"	NA	NA	705	70	"YEARS"	"F"	"WHITE"	"HISPANIC OR LATINO"	"Scrnfail"	"Screen Failure"	"Scrnfail"	"Screen Failure"	"USA"	"2013-02-26"	NA	"Screen Failure"	"Screen Failure"	NA	NA	NA	NA	NA	NA	NA	"2013-02-26"	NA	NA	NA	NA	NA	NA	NA	NA	">=65"	NA	"White"	NA	NA	NA	NA	NA
"106"	"CDISCPILOT01"	"01-705-1280"	1280	"2014-01-17"	"2014-07-25"	"2014-01-17"	"2014-07-25"	NA	"2014-07-25"	NA	NA	705	56	"YEARS"	"F"	"WHITE"	"NOT HISPANIC OR LATINO"	"Xan_Hi"	"Xanomeline High Dose"	"Xan_Hi"	"Xanomeline High Dose"	"USA"	"2014-01-11"	-6	"Xanomeline High Dose"	"Xanomeline High Dose"	"2014-01-17T00:00:00Z"	"H"	"2014-07-25T23:59:59Z"	"H"	"2014-01-17"	"2014-07-25"	190	NA	"2014-07-25"	"COMPLETED"	NA	"2014-01-17"	NA	NA	NA	"2014-07-25"	"18-64"	"Y"	"White"	NA	NA	NA	NA	NA
"107"	"CDISCPILOT01"	"01-705-1281"	1281	"2013-11-28"	"2014-03-17"	"2013-11-28"	"2014-02-27"	NA	"2014-04-20"	NA	NA	705	73	"YEARS"	"F"	"BLACK OR AFRICAN AMERICAN"	"NOT HISPANIC OR LATINO"	"Xan_Hi"	"Xanomeline High Dose"	"Xan_Hi"	"Xanomeline High Dose"	"USA"	"2013-11-26"	-2	"Xanomeline High Dose"	"Xanomeline High Dose"	"2013-11-28T00:00:00Z"	"H"	"2014-02-27T23:59:59Z"	"H"	"2013-11-28"	"2014-02-27"	92	NA	"2014-03-17"	"DISCONTINUED"	NA	"2013-11-28"	NA	NA	NA	"2014-03-17"	">=65"	"Y"	"Non-white"	NA	NA	NA	NA	NA
"108"	"CDISCPILOT01"	"01-705-1282"	1282	"2012-12-26"	"2013-06-24"	"2012-12-26"	"2013-06-24"	NA	"2013-06-24T15:25"	NA	NA	705	70	"YEARS"	"F"	"BLACK OR AFRICAN AMERICAN"	"NOT HISPANIC OR LATINO"	"Pbo"	"Placebo"	"Pbo"	"Placebo"	"USA"	"2012-12-23"	-3	"Placebo"	"Placebo"	"2012-12-26T00:00:00Z"	"H"	"2013-06-24T23:59:59Z"	"H"	"2012-12-26"	"2013-06-24"	181	NA	"2013-06-24"	"COMPLETED"	NA	"2012-12-26"	NA	NA	NA	"2013-06-24"	">=65"	"Y"	"Non-white"	NA	NA	NA	NA	NA
"109"	"CDISCPILOT01"	"01-705-1292"	1292	"2013-10-14"	"2014-05-14"	"2013-10-14"	"2014-05-13"	NA	"2014-05-14T13:33"	NA	NA	705	60	"YEARS"	"F"	"BLACK OR AFRICAN AMERICAN"	"NOT HISPANIC OR LATINO"	"Xan_Lo"	"Xanomeline Low Dose"	"Xan_Lo"	"Xanomeline Low Dose"	"USA"	"2013-10-11"	-3	"Xanomeline Low Dose"	"Xanomeline Low Dose"	"2013-10-14T00:00:00Z"	"H"	"2014-05-13T23:59:59Z"	"H"	"2013-10-14"	"2014-05-13"	212	NA	"2014-05-14"	"COMPLETED"	NA	"2013-10-14"	NA	NA	NA	"2014-05-14"	"18-64"	"Y"	"Non-white"	NA	NA	NA	NA	NA
"110"	"CDISCPILOT01"	"01-705-1303"	1303	"2013-12-16"	"2014-06-02"	"2013-12-16"	"2013-12-30"	NA	"2014-06-02"	NA	NA	705	72	"YEARS"	"M"	"WHITE"	"NOT HISPANIC OR LATINO"	"Xan_Hi"	"Xanomeline High Dose"	"Xan_Hi"	"Xanomeline High Dose"	"USA"	"2013-12-10"	-6	"Xanomeline High Dose"	"Xanomeline High Dose"	"2013-12-16T00:00:00Z"	"H"	"2013-12-30T23:59:59Z"	"H"	"2013-12-16"	"2013-12-30"	15	NA	"2014-06-02"	"DISCONTINUED"	NA	"2013-12-16"	NA	NA	NA	"2014-04-07"	">=65"	"Y"	"White"	NA	NA	NA	NA	NA
"111"	"CDISCPILOT01"	"01-705-1310"	1310	"2013-11-02"	"2014-01-23"	"2013-11-02"	"2014-01-23"	NA	"2014-02-24"	NA	NA	705	74	"YEARS"	"F"	"WHITE"	"NOT HISPANIC OR LATINO"	"Xan_Hi"	"Xanomeline High Dose"	"Xan_Hi"	"Xanomeline High Dose"	"USA"	"2013-10-26"	-7	"Xanomeline High Dose"	"Xanomeline High Dose"	"2013-11-02T00:00:00Z"	"H"	"2014-01-23T23:59:59Z"	"H"	"2013-11-02"	"2014-01-23"	83	NA	"2014-01-23"	"DISCONTINUED"	NA	"2013-11-02"	NA	NA	NA	"2014-01-23"	">=65"	"Y"	"White"	NA	NA	NA	NA	NA
"112"	"CDISCPILOT01"	"01-705-1349"	1349	"2013-03-10"	"2013-09-08"	"2013-03-10"	"2013-09-08"	NA	"2013-09-08T10:10"	NA	NA	705	86	"YEARS"	"F"	"WHITE"	"HISPANIC OR LATINO"	"Pbo"	"Placebo"	"Pbo"	"Placebo"	"USA"	"2013-02-24"	-14	"Placebo"	"Placebo"	"2013-03-10T00:00:00Z"	"H"	"2013-09-08T23:59:59Z"	"H"	"2013-03-10"	"2013-09-08"	183	NA	"2013-09-08"	"COMPLETED"	NA	"2013-03-10"	NA	NA	NA	"2013-09-08"	">=65"	"Y"	"White"	NA	NA	NA	NA	NA
"113"	"CDISCPILOT01"	"01-705-1377"	1377	"2014-01-04"	"2014-03-07"	"2014-01-04"	"2014-01-25"	NA	"2014-03-07"	NA	NA	705	63	"YEARS"	"F"	"BLACK OR AFRICAN AMERICAN"	"NOT HISPANIC OR LATINO"	"Xan_Hi"	"Xanomeline High Dose"	"Xan_Hi"	"Xanomeline High Dose"	"USA"	"2013-12-29"	-6	"Xanomeline High Dose"	"Xanomeline High Dose"	"2014-01-04T00:00:00Z"	"H"	"2014-01-25T23:59:59Z"	"H"	"2014-01-04"	"2014-01-25"	22	NA	"2014-03-07"	"DISCONTINUED"	NA	"2014-01-04"	NA	NA	NA	"2014-02-07"	"18-64"	"Y"	"Non-white"	NA	NA	NA	NA	NA
"114"	"CDISCPILOT01"	"01-705-1382"	1382	"2013-05-13"	"2013-05-13"	"2013-05-13"	NA	NA	"2013-05-13"	NA	NA	705	82	"YEARS"	"M"	"WHITE"	"NOT HISPANIC OR LATINO"	"Xan_Hi"	"Xanomeline High Dose"	"Xan_Lo"	"Xanomeline Low Dose"	"USA"	"2013-05-09"	-4	"Xanomeline High Dose"	"Xanomeline Low Dose"	"2013-05-13T00:00:00Z"	"H"	NA	NA	"2013-05-13"	NA	NA	NA	"2013-05-13"	"DISCONTINUED"	NA	"2013-05-13"	NA	NA	NA	"2013-05-09"	">=65"	"Y"	"White"	NA	NA	NA	NA	NA
"115"	"CDISCPILOT01"	"01-705-1393"	1393	"2012-09-07"	"2013-02-20"	"2012-09-07"	"2013-02-01"	NA	"2013-04-25"	NA	NA	705	84	"YEARS"	"F"	"WHITE"	"NOT HISPANIC OR LATINO"	"Xan_Lo"	"Xanomeline Low Dose"	"Xan_Lo"	"Xanomeline Low Dose"	"USA"	"2012-09-02"	-5	"Xanomeline Low Dose"	"Xanomeline Low Dose"	"2012-09-07T00:00:00Z"	"H"	"2013-02-01T23:59:59Z"	"H"	"2012-09-07"	"2013-02-01"	148	NA	"2013-02-20"	"DISCONTINUED"	NA	"2012-09-07"	NA	NA	NA	"2013-02-20"	">=65"	"Y"	"White"	NA	NA	NA	NA	NA
"116"	"CDISCPILOT01"	"01-705-1421"	1421	NA	NA	NA	NA	NA	"2013-01-16"	NA	NA	705	87	"YEARS"	"M"	"WHITE"	"NOT HISPANIC OR LATINO"	"Scrnfail"	"Screen Failure"	"Scrnfail"	"Screen Failure"	"USA"	"2013-01-14"	NA	"Screen Failure"	"Screen Failure"	NA	NA	NA	NA	NA	NA	NA	"2013-01-14"	NA	NA	NA	NA	NA	NA	NA	NA	">=65"	NA	"White"	NA	NA	NA	NA	NA
"117"	"CDISCPILOT01"	"01-705-1431"	1431	"2013-06-23"	"2013-12-19"	"2013-06-23"	"2013-12-19"	NA	"2013-12-19T10:05"	NA	NA	705	68	"YEARS"	"F"	"WHITE"	"HISPANIC OR LATINO"	"Xan_Lo"	"Xanomeline Low Dose"	"Xan_Lo"	"Xanomeline Low Dose"	"USA"	"2013-06-16"	-7	"Xanomeline Low Dose"	"Xanomeline Low Dose"	"2013-06-23T00:00:00Z"	"H"	"2013-12-19T23:59:59Z"	"H"	"2013-06-23"	"2013-12-19"	180	NA	"2013-12-19"	"COMPLETED"	NA	"2013-06-23"	NA	NA	NA	"2013-12-19"	">=65"	"Y"	"White"	NA	NA	NA	NA	NA
"118"	"CDISCPILOT01"	"01-706-1041"	1041	"2013-12-31"	"2014-07-29"	"2013-12-31"	"2014-07-28"	NA	"2014-07-29T13:45"	NA	NA	706	64	"YEARS"	"F"	"BLACK OR AFRICAN AMERICAN"	"NOT HISPANIC OR LATINO"	"Pbo"	"Placebo"	"Pbo"	"Placebo"	"USA"	"2013-12-21"	-10	"Placebo"	"Placebo"	"2013-12-31T00:00:00Z"	"H"	"2014-07-28T23:59:59Z"	"H"	"2013-12-31"	"2014-07-28"	210	NA	"2014-07-29"	"COMPLETED"	NA	"2013-12-31"	NA	NA	NA	"2014-07-29"	"18-64"	"Y"	"Non-white"	NA	NA	NA	NA	NA
"119"	"CDISCPILOT01"	"01-706-1049"	1049	"2013-05-14"	"2013-06-25"	"2013-05-14"	"2013-06-18"	NA	"2013-11-26"	NA	NA	706	60	"YEARS"	"F"	"WHITE"	"NOT HISPANIC OR LATINO"	"Xan_Hi"	"Xanomeline High Dose"	"Xan_Hi"	"Xanomeline High Dose"	"USA"	"2013-04-30"	-14	"Xanomeline High Dose"	"Xanomeline High Dose"	"2013-05-14T00:00:00Z"	"H"	"2013-06-18T23:59:59Z"	"H"	"2013-05-14"	"2013-06-18"	36	NA	"2013-06-25"	"DISCONTINUED"	"2013-11-26"	"2013-05-14"	NA	NA	NA	"2013-06-25"	"18-64"	"Y"	"White"	NA	NA	NA	NA	NA
"120"	"CDISCPILOT01"	"01-706-1384"	1384	"2012-09-15"	"2012-09-29"	"2012-09-15"	"2012-09-24"	NA	"2013-06-22"	NA	NA	706	74	"YEARS"	"F"	"WHITE"	"NOT HISPANIC OR LATINO"	"Xan_Lo"	"Xanomeline Low Dose"	"Xan_Lo"	"Xanomeline Low Dose"	"USA"	"2012-08-25"	-21	"Xanomeline Low Dose"	"Xanomeline Low Dose"	"2012-09-15T00:00:00Z"	"H"	"2012-09-24T23:59:59Z"	"H"	"2012-09-15"	"2012-09-24"	10	NA	"2012-09-29"	"DISCONTINUED"	"2013-06-22"	"2012-09-15"	NA	NA	NA	"2012-09-29"	">=65"	"Y"	"White"	NA	NA	NA	NA	NA
"121"	"CDISCPILOT01"	"01-707-1037"	1037	"2013-12-20"	"2014-01-08"	"2013-12-20"	"2013-12-24"	NA	"2014-01-08T12:40"	NA	NA	707	72	"YEARS"	"F"	"WHITE"	"NOT HISPANIC OR LATINO"	"Xan_Lo"	"Xanomeline Low Dose"	"Xan_Lo"	"Xanomeline Low Dose"	"USA"	"2013-12-12"	-8	"Xanomeline Low Dose"	"Xanomeline Low Dose"	"2013-12-20T00:00:00Z"	"H"	"2013-12-24T23:59:59Z"	"H"	"2013-12-20"	"2013-12-24"	5	NA	"2014-01-08"	"DISCONTINUED"	NA	"2013-12-20"	NA	NA	NA	"2014-01-08"	">=65"	"Y"	"White"	NA	NA	NA	NA	NA
"122"	"CDISCPILOT01"	"01-707-1206"	1206	"2013-10-28"	"2014-04-27"	"2013-10-28"	"2014-04-26"	NA	"2014-04-27T08:00"	NA	NA	707	65	"YEARS"	"M"	"WHITE"	"NOT HISPANIC OR LATINO"	"Pbo"	"Placebo"	"Pbo"	"Placebo"	"USA"	"2013-10-20"	-8	"Placebo"	"Placebo"	"2013-10-28T00:00:00Z"	"H"	"2014-04-26T23:59:59Z"	"H"	"2013-10-28"	"2014-04-26"	181	NA	"2014-04-27"	"COMPLETED"	NA	"2013-10-28"	NA	NA	NA	"2014-04-27"	">=65"	"Y"	"White"	NA	NA	NA	NA	NA
"123"	"CDISCPILOT01"	"01-707-1276"	1276	NA	NA	NA	NA	NA	"2012-10-29"	NA	NA	707	72	"YEARS"	"F"	"WHITE"	"NOT HISPANIC OR LATINO"	"Scrnfail"	"Screen Failure"	"Scrnfail"	"Screen Failure"	"USA"	"2012-10-12"	NA	"Screen Failure"	"Screen Failure"	NA	NA	NA	NA	NA	NA	NA	"2012-10-12"	NA	NA	NA	NA	NA	NA	NA	NA	">=65"	NA	"White"	NA	NA	NA	NA	NA
"124"	"CDISCPILOT01"	"01-707-1430"	1430	NA	NA	NA	NA	NA	"2014-02-15"	NA	NA	707	81	"YEARS"	"F"	"WHITE"	"NOT HISPANIC OR LATINO"	"Scrnfail"	"Screen Failure"	"Scrnfail"	"Screen Failure"	"USA"	"2014-02-14"	NA	"Screen Failure"	"Screen Failure"	NA	NA	NA	NA	NA	NA	NA	"2014-02-14"	NA	NA	NA	NA	NA	NA	NA	NA	">=65"	NA	"White"	NA	NA	NA	NA	NA
"125"	"CDISCPILOT01"	"01-707-1434"	1434	NA	NA	NA	NA	NA	"2013-07-29"	NA	NA	707	76	"YEARS"	"F"	"WHITE"	"NOT HISPANIC OR LATINO"	"Scrnfail"	"Screen Failure"	"Scrnfail"	"Screen Failure"	"USA"	"2013-07-25"	NA	"Screen Failure"	"Screen Failure"	NA	NA	NA	NA	NA	NA	NA	"2013-07-25"	NA	NA	NA	NA	NA	NA	NA	NA	">=65"	NA	"White"	NA	NA	NA	NA	NA
"126"	"CDISCPILOT01"	"01-708-1013"	1013	NA	NA	NA	NA	NA	"2012-11-09"	NA	NA	708	80	"YEARS"	"M"	"WHITE"	"NOT HISPANIC OR LATINO"	"Scrnfail"	"Screen Failure"	"Scrnfail"	"Screen Failure"	"USA"	"2012-10-13"	NA	"Screen Failure"	"Screen Failure"	NA	NA	NA	NA	NA	NA	NA	"2012-10-13"	NA	NA	NA	NA	NA	NA	NA	NA	">=65"	NA	"White"	NA	NA	NA	NA	NA
"127"	"CDISCPILOT01"	"01-708-1019"	1019	"2013-12-20"	"2014-01-23"	"2013-12-20"	"2014-01-01"	NA	"2014-01-23T10:10"	NA	NA	708	68	"YEARS"	"M"	"WHITE"	"NOT HISPANIC OR LATINO"	"Xan_Lo"	"Xanomeline Low Dose"	"Xan_Lo"	"Xanomeline Low Dose"	"USA"	"2013-12-10"	-10	"Xanomeline Low Dose"	"Xanomeline Low Dose"	"2013-12-20T00:00:00Z"	"H"	"2014-01-01T23:59:59Z"	"H"	"2013-12-20"	"2014-01-01"	13	NA	"2014-01-23"	"DISCONTINUED"	NA	"2013-12-20"	NA	NA	NA	"2014-01-23"	">=65"	"Y"	"White"	NA	NA	NA	NA	NA
"128"	"CDISCPILOT01"	"01-708-1032"	1032	"2013-02-09"	"2013-03-09"	"2013-02-09"	"2013-03-01"	NA	"2013-03-09T10:45"	NA	NA	708	62	"YEARS"	"M"	"WHITE"	"NOT HISPANIC OR LATINO"	"Xan_Lo"	"Xanomeline Low Dose"	"Xan_Lo"	"Xanomeline Low Dose"	"USA"	"2013-02-02"	-7	"Xanomeline Low Dose"	"Xanomeline Low Dose"	"2013-02-09T00:00:00Z"	"H"	"2013-03-01T23:59:59Z"	"H"	"2013-02-09"	"2013-03-01"	21	NA	"2013-03-09"	"DISCONTINUED"	NA	"2013-02-09"	NA	NA	NA	"2013-03-09"	"18-64"	"Y"	"White"	NA	NA	NA	NA	NA
"129"	"CDISCPILOT01"	"01-708-1054"	1054	NA	NA	NA	NA	NA	"2014-03-05"	NA	NA	708	73	"YEARS"	"F"	"BLACK OR AFRICAN AMERICAN"	"NOT HISPANIC OR LATINO"	"Scrnfail"	"Screen Failure"	"Scrnfail"	"Screen Failure"	"USA"	"2014-02-14"	NA	"Screen Failure"	"Screen Failure"	NA	NA	NA	NA	NA	NA	NA	"2014-02-14"	NA	NA	NA	NA	NA	NA	NA	NA	">=65"	NA	"Non-white"	NA	NA	NA	NA	NA
"130"	"CDISCPILOT01"	"01-708-1067"	1067	NA	NA	NA	NA	NA	"2013-03-07"	NA	NA	708	88	"YEARS"	"M"	"WHITE"	"NOT HISPANIC OR LATINO"	"Scrnfail"	"Screen Failure"	"Scrnfail"	"Screen Failure"	"USA"	"2013-02-07"	NA	"Screen Failure"	"Screen Failure"	NA	NA	NA	NA	NA	NA	NA	"2013-02-07"	NA	NA	NA	NA	NA	NA	NA	NA	">=65"	NA	"White"	NA	NA	NA	NA	NA
"131"	"CDISCPILOT01"	"01-708-1084"	1084	"2013-05-09"	"2013-11-11"	"2013-05-09"	"2013-11-11"	NA	"2013-11-11T10:00"	NA	NA	708	73	"YEARS"	"F"	"WHITE"	"NOT HISPANIC OR LATINO"	"Xan_Lo"	"Xanomeline Low Dose"	"Xan_Lo"	"Xanomeline Low Dose"	"USA"	"2013-05-01"	-8	"Xanomeline Low Dose"	"Xanomeline Low Dose"	"2013-05-09T00:00:00Z"	"H"	"2013-11-11T23:59:59Z"	"H"	"2013-05-09"	"2013-11-11"	187	NA	"2013-11-11"	"COMPLETED"	NA	"2013-05-09"	NA	NA	NA	"2013-11-11"	">=65"	"Y"	"White"	NA	NA	NA	NA	NA
"132"	"CDISCPILOT01"	"01-708-1087"	1087	"2012-10-22"	"2013-04-28"	"2012-10-22"	"2013-04-28"	NA	"2013-04-28T12:40"	NA	NA	708	74	"YEARS"	"F"	"WHITE"	"NOT HISPANIC OR LATINO"	"Pbo"	"Placebo"	"Pbo"	"Placebo"	"USA"	"2012-10-06"	-16	"Placebo"	"Placebo"	"2012-10-22T00:00:00Z"	"H"	"2013-04-28T23:59:59Z"	"H"	"2012-10-22"	"2013-04-28"	189	NA	"2013-04-28"	"COMPLETED"	NA	"2012-10-22"	NA	NA	NA	"2013-04-28"	">=65"	"Y"	"White"	NA	NA	NA	NA	NA
"133"	"CDISCPILOT01"	"01-708-1104"	1104	NA	NA	NA	NA	NA	"2014-01-23"	NA	NA	708	78	"YEARS"	"F"	"ASIAN"	"NOT HISPANIC OR LATINO"	"Scrnfail"	"Screen Failure"	"Scrnfail"	"Screen Failure"	"USA"	"2014-01-23"	NA	"Screen Failure"	"Screen Failure"	NA	NA	NA	NA	NA	NA	NA	"2014-01-23"	NA	NA	NA	NA	NA	NA	NA	NA	">=65"	NA	"Non-white"	NA	NA	NA	NA	NA
"134"	"CDISCPILOT01"	"01-708-1158"	1158	"2014-02-08"	"2014-03-22"	"2014-02-08"	"2014-03-21"	NA	"2014-03-22T11:15"	NA	NA	708	81	"YEARS"	"F"	"WHITE"	"NOT HISPANIC OR LATINO"	"Pbo"	"Placebo"	"Pbo"	"Placebo"	"USA"	"2014-02-01"	-7	"Placebo"	"Placebo"	"2014-02-08T00:00:00Z"	"H"	"2014-03-21T23:59:59Z"	"H"	"2014-02-08"	"2014-03-21"	42	NA	"2014-03-22"	"DISCONTINUED"	NA	"2014-02-08"	NA	NA	NA	"2014-03-22"	">=65"	"Y"	"White"	NA	NA	NA	NA	NA
"135"	"CDISCPILOT01"	"01-708-1171"	1171	"2012-12-06"	"2013-06-04"	"2012-12-06"	"2013-06-04"	NA	"2013-06-04"	NA	NA	708	77	"YEARS"	"F"	"WHITE"	"NOT HISPANIC OR LATINO"	"Pbo"	"Placebo"	"Pbo"	"Placebo"	"USA"	"2012-11-25"	-11	"Placebo"	"Placebo"	"2012-12-06T00:00:00Z"	"H"	"2013-06-04T23:59:59Z"	"H"	"2012-12-06"	"2013-06-04"	181	NA	"2013-06-04"	"COMPLETED"	NA	"2012-12-06"	NA	NA	NA	"2013-06-04"	">=65"	"Y"	"White"	NA	NA	NA	NA	NA
"136"	"CDISCPILOT01"	"01-708-1178"	1178	"2013-12-29"	"2014-04-06"	"2013-12-29"	"2014-04-06"	NA	"2014-04-06T08:50"	NA	NA	708	77	"YEARS"	"F"	"BLACK OR AFRICAN AMERICAN"	"NOT HISPANIC OR LATINO"	"Xan_Hi"	"Xanomeline High Dose"	"Xan_Hi"	"Xanomeline High Dose"	"USA"	"2013-12-13"	-16	"Xanomeline High Dose"	"Xanomeline High Dose"	"2013-12-29T00:00:00Z"	"H"	"2014-04-06T23:59:59Z"	"H"	"2013-12-29"	"2014-04-06"	99	NA	"2014-04-06"	"DISCONTINUED"	NA	"2013-12-29"	NA	NA	NA	"2014-04-06"	">=65"	"Y"	"Non-white"	NA	NA	NA	NA	NA
"137"	"CDISCPILOT01"	"01-708-1184"	1184	NA	NA	NA	NA	NA	"2013-02-03"	NA	NA	708	70	"YEARS"	"F"	"WHITE"	"NOT HISPANIC OR LATINO"	"Scrnfail"	"Screen Failure"	"Scrnfail"	"Screen Failure"	"USA"	"2013-01-14"	NA	"Screen Failure"	"Screen Failure"	NA	NA	NA	NA	NA	NA	NA	"2013-01-14"	NA	NA	NA	NA	NA	NA	NA	NA	">=65"	NA	"White"	NA	NA	NA	NA	NA
"138"	"CDISCPILOT01"	"01-708-1213"	1213	"2013-02-09"	"2013-02-26"	"2013-02-09"	"2013-02-22"	NA	"2013-02-26"	NA	NA	708	76	"YEARS"	"F"	"WHITE"	"NOT HISPANIC OR LATINO"	"Xan_Hi"	"Xanomeline High Dose"	"Xan_Lo"	"Xanomeline Low Dose"	"USA"	"2013-02-01"	-8	"Xanomeline High Dose"	"Xanomeline Low Dose"	"2013-02-09T00:00:00Z"	"H"	"2013-02-22T23:59:59Z"	"H"	"2013-02-09"	"2013-02-22"	14	NA	"2013-02-26"	"DISCONTINUED"	NA	"2013-02-09"	NA	NA	NA	"2013-02-22"	">=65"	"Y"	"White"	NA	NA	NA	NA	NA
"139"	"CDISCPILOT01"	"01-708-1216"	1216	"2012-10-24"	"2012-12-06"	"2012-10-24"	"2012-11-29"	NA	"2013-01-09"	NA	NA	708	78	"YEARS"	"M"	"WHITE"	"NOT HISPANIC OR LATINO"	"Xan_Hi"	"Xanomeline High Dose"	"Xan_Hi"	"Xanomeline High Dose"	"USA"	"2012-10-14"	-10	"Xanomeline High Dose"	"Xanomeline High Dose"	"2012-10-24T00:00:00Z"	"H"	"2012-11-29T23:59:59Z"	"H"	"2012-10-24"	"2012-11-29"	37	NA	"2012-12-06"	"DISCONTINUED"	NA	"2012-10-24"	NA	NA	NA	"2012-12-06"	">=65"	"Y"	"White"	NA	NA	NA	NA	NA
"140"	"CDISCPILOT01"	"01-708-1236"	1236	"2013-09-21"	"2013-09-26"	"2013-09-21"	"2013-09-21"	NA	"2013-09-26"	NA	NA	708	86	"YEARS"	"F"	"WHITE"	"NOT HISPANIC OR LATINO"	"Xan_Hi"	"Xanomeline High Dose"	"Xan_Lo"	"Xanomeline Low Dose"	"USA"	"2013-09-08"	-13	"Xanomeline High Dose"	"Xanomeline Low Dose"	"2013-09-21T00:00:00Z"	"H"	"2013-09-21T23:59:59Z"	"H"	"2013-09-21"	"2013-09-21"	1	NA	"2013-09-26"	"DISCONTINUED"	NA	"2013-09-21"	NA	NA	NA	"2013-09-21"	">=65"	"Y"	"White"	NA	NA	NA	NA	NA
"141"	"CDISCPILOT01"	"01-708-1242"	1242	NA	NA	NA	NA	NA	"2012-08-13"	NA	NA	708	80	"YEARS"	"M"	"WHITE"	"NOT HISPANIC OR LATINO"	"Scrnfail"	"Screen Failure"	"Scrnfail"	"Screen Failure"	"USA"	"2012-08-13"	NA	"Screen Failure"	"Screen Failure"	NA	NA	NA	NA	NA	NA	NA	"2012-08-13"	NA	NA	NA	NA	NA	NA	NA	NA	">=65"	NA	"White"	NA	NA	NA	NA	NA
"142"	"CDISCPILOT01"	"01-708-1253"	1253	"2013-05-07"	"2013-11-05"	"2013-05-07"	"2013-11-05"	NA	"2013-11-05"	NA	NA	708	61	"YEARS"	"M"	"WHITE"	"NOT HISPANIC OR LATINO"	"Pbo"	"Placebo"	"Pbo"	"Placebo"	"USA"	"2013-04-26"	-11	"Placebo"	"Placebo"	"2013-05-07T00:00:00Z"	"H"	"2013-11-05T23:59:59Z"	"H"	"2013-05-07"	"2013-11-05"	183	NA	"2013-11-05"	"COMPLETED"	NA	"2013-05-07"	NA	NA	NA	"2013-11-05"	"18-64"	"Y"	"White"	NA	NA	NA	NA	NA
"143"	"CDISCPILOT01"	"01-708-1272"	1272	"2013-02-06"	"2013-04-04"	"2013-02-06"	"2013-03-22"	NA	"2013-04-04T11:05"	NA	NA	708	82	"YEARS"	"M"	"WHITE"	"NOT HISPANIC OR LATINO"	"Xan_Lo"	"Xanomeline Low Dose"	"Xan_Lo"	"Xanomeline Low Dose"	"USA"	"2013-01-22"	-15	"Xanomeline Low Dose"	"Xanomeline Low Dose"	"2013-02-06T00:00:00Z"	"H"	"2013-03-22T23:59:59Z"	"H"	"2013-02-06"	"2013-03-22"	45	NA	"2013-04-04"	"DISCONTINUED"	NA	"2013-02-06"	NA	NA	NA	"2013-04-04"	">=65"	"Y"	"White"	NA	NA	NA	NA	NA
"144"	"CDISCPILOT01"	"01-708-1286"	1286	"2013-09-10"	"2014-03-08"	"2013-09-10"	"2014-03-08"	NA	"2014-03-08T09:50"	NA	NA	708	80	"YEARS"	"F"	"BLACK OR AFRICAN AMERICAN"	"NOT HISPANIC OR LATINO"	"Pbo"	"Placebo"	"Pbo"	"Placebo"	"USA"	"2013-08-25"	-16	"Placebo"	"Placebo"	"2013-09-10T00:00:00Z"	"H"	"2014-03-08T23:59:59Z"	"H"	"2013-09-10"	"2014-03-08"	180	NA	"2014-03-08"	"COMPLETED"	NA	"2013-09-10"	NA	NA	NA	"2014-03-08"	">=65"	"Y"	"Non-white"	NA	NA	NA	NA	NA
"145"	"CDISCPILOT01"	"01-708-1296"	1296	"2013-06-14"	"2013-12-12"	"2013-06-14"	"2013-12-12"	NA	"2013-12-12T09:30"	NA	NA	708	57	"YEARS"	"M"	"BLACK OR AFRICAN AMERICAN"	"NOT HISPANIC OR LATINO"	"Pbo"	"Placebo"	"Pbo"	"Placebo"	"USA"	"2013-06-07"	-7	"Placebo"	"Placebo"	"2013-06-14T00:00:00Z"	"H"	"2013-12-12T23:59:59Z"	"H"	"2013-06-14"	"2013-12-12"	182	NA	"2013-12-12"	"COMPLETED"	NA	"2013-06-14"	NA	NA	NA	"2013-12-12"	"18-64"	"Y"	"Non-white"	NA	NA	NA	NA	NA
"146"	"CDISCPILOT01"	"01-708-1297"	1297	"2013-01-25"	"2013-05-08"	"2013-01-25"	"2013-05-03"	NA	"2013-06-07"	NA	NA	708	61	"YEARS"	"M"	"WHITE"	"NOT HISPANIC OR LATINO"	"Xan_Lo"	"Xanomeline Low Dose"	"Xan_Lo"	"Xanomeline Low Dose"	"USA"	"2013-01-15"	-10	"Xanomeline Low Dose"	"Xanomeline Low Dose"	"2013-01-25T00:00:00Z"	"H"	"2013-05-03T23:59:59Z"	"H"	"2013-01-25"	"2013-05-03"	99	NA	"2013-05-08"	"DISCONTINUED"	NA	"2013-01-25"	NA	NA	NA	"2013-05-08"	"18-64"	"Y"	"White"	NA	NA	NA	NA	NA
"147"	"CDISCPILOT01"	"01-708-1316"	1316	"2013-08-23"	"2014-03-01"	"2013-08-23"	"2014-03-01"	NA	"2014-03-01T10:25"	NA	NA	708	74	"YEARS"	"F"	"WHITE"	"NOT HISPANIC OR LATINO"	"Pbo"	"Placebo"	"Pbo"	"Placebo"	"USA"	"2013-08-15"	-8	"Placebo"	"Placebo"	"2013-08-23T00:00:00Z"	"H"	"2014-03-01T23:59:59Z"	"H"	"2013-08-23"	"2014-03-01"	191	NA	"2014-03-01"	"COMPLETED"	NA	"2013-08-23"	NA	NA	NA	"2014-03-01"	">=65"	"Y"	"White"	NA	NA	NA	NA	NA
"148"	"CDISCPILOT01"	"01-708-1336"	1336	"2012-12-07"	"2013-06-05"	"2012-12-07"	"2013-06-05"	NA	"2013-07-05"	NA	NA	708	73	"YEARS"	"M"	"WHITE"	"NOT HISPANIC OR LATINO"	"Xan_Hi"	"Xanomeline High Dose"	"Xan_Hi"	"Xanomeline High Dose"	"USA"	"2012-11-21"	-16	"Xanomeline High Dose"	"Xanomeline High Dose"	"2012-12-07T00:00:00Z"	"H"	"2013-06-05T23:59:59Z"	"H"	"2012-12-07"	"2013-06-05"	181	NA	"2013-06-05"	"COMPLETED"	NA	"2012-12-07"	NA	NA	NA	"2013-06-05"	">=65"	"Y"	"White"	NA	NA	NA	NA	NA
"149"	"CDISCPILOT01"	"01-708-1342"	1342	"2012-12-29"	"2013-06-28"	"2012-12-29"	"2013-06-28"	NA	"2013-06-28T09:40"	NA	NA	708	59	"YEARS"	"F"	"WHITE"	"NOT HISPANIC OR LATINO"	"Pbo"	"Placebo"	"Pbo"	"Placebo"	"USA"	"2012-12-21"	-8	"Placebo"	"Placebo"	"2012-12-29T00:00:00Z"	"H"	"2013-06-28T23:59:59Z"	"H"	"2012-12-29"	"2013-06-28"	182	NA	"2013-06-28"	"COMPLETED"	NA	"2012-12-29"	NA	NA	NA	"2013-06-28"	"18-64"	"Y"	"White"	NA	NA	NA	NA	NA
"150"	"CDISCPILOT01"	"01-708-1347"	1347	"2013-04-20"	"2013-06-18"	"2013-04-20"	"2013-06-18"	NA	"2013-08-02"	NA	NA	708	61	"YEARS"	"F"	"WHITE"	"NOT HISPANIC OR LATINO"	"Xan_Hi"	"Xanomeline High Dose"	"Xan_Hi"	"Xanomeline High Dose"	"USA"	"2013-04-11"	-9	"Xanomeline High Dose"	"Xanomeline High Dose"	"2013-04-20T00:00:00Z"	"H"	"2013-06-18T23:59:59Z"	"H"	"2013-04-20"	"2013-06-18"	60	NA	"2013-06-18"	"DISCONTINUED"	NA	"2013-04-20"	NA	NA	NA	"2013-06-25"	"18-64"	"Y"	"White"	NA	NA	NA	NA	NA
"151"	"CDISCPILOT01"	"01-708-1348"	1348	"2013-08-05"	"2014-02-13"	"2013-08-05"	"2014-02-13"	NA	"2014-02-13T10:25"	NA	NA	708	79	"YEARS"	"F"	"WHITE"	"NOT HISPANIC OR LATINO"	"Xan_Lo"	"Xanomeline Low Dose"	"Xan_Lo"	"Xanomeline Low Dose"	"USA"	"2013-07-28"	-8	"Xanomeline Low Dose"	"Xanomeline Low Dose"	"2013-08-05T00:00:00Z"	"H"	"2014-02-13T23:59:59Z"	"H"	"2013-08-05"	"2014-02-13"	193	NA	"2014-02-13"	"COMPLETED"	NA	"2013-08-05"	NA	NA	NA	"2014-02-13"	">=65"	"Y"	"White"	NA	NA	NA	NA	NA
"152"	"CDISCPILOT01"	"01-708-1352"	1352	NA	NA	NA	NA	NA	"2013-09-29"	NA	NA	708	87	"YEARS"	"F"	"WHITE"	"NOT HISPANIC OR LATINO"	"Scrnfail"	"Screen Failure"	"Scrnfail"	"Screen Failure"	"USA"	"2013-09-16"	NA	"Screen Failure"	"Screen Failure"	NA	NA	NA	NA	NA	NA	NA	"2013-09-16"	NA	NA	NA	NA	NA	NA	NA	NA	">=65"	NA	"White"	NA	NA	NA	NA	NA
"153"	"CDISCPILOT01"	"01-708-1353"	1353	"2013-07-04"	"2013-09-10"	"2013-07-04"	"2013-08-28"	NA	"2013-09-10T13:15"	NA	NA	708	87	"YEARS"	"F"	"BLACK OR AFRICAN AMERICAN"	"NOT HISPANIC OR LATINO"	"Xan_Lo"	"Xanomeline Low Dose"	"Xan_Lo"	"Xanomeline Low Dose"	"USA"	"2013-06-17"	-17	"Xanomeline Low Dose"	"Xanomeline Low Dose"	"2013-07-04T00:00:00Z"	"H"	"2013-08-28T23:59:59Z"	"H"	"2013-07-04"	"2013-08-28"	56	NA	"2013-09-10"	"DISCONTINUED"	NA	"2013-07-04"	NA	NA	NA	"2013-09-10"	">=65"	"Y"	"Non-white"	NA	NA	NA	NA	NA
"154"	"CDISCPILOT01"	"01-708-1372"	1372	"2013-04-12"	"2013-05-10"	"2013-04-12"	"2013-04-19"	NA	"2013-05-10"	NA	NA	708	84	"YEARS"	"M"	"WHITE"	"NOT HISPANIC OR LATINO"	"Xan_Hi"	"Xanomeline High Dose"	"Xan_Lo"	"Xanomeline Low Dose"	"USA"	"2013-04-03"	-9	"Xanomeline High Dose"	"Xanomeline Low Dose"	"2013-04-12T00:00:00Z"	"H"	"2013-04-19T23:59:59Z"	"H"	"2013-04-12"	"2013-04-19"	8	NA	"2013-05-10"	"DISCONTINUED"	NA	"2013-04-12"	NA	NA	NA	"2013-04-19"	">=65"	"Y"	"White"	NA	NA	NA	NA	NA
"155"	"CDISCPILOT01"	"01-708-1378"	1378	"2013-09-03"	"2014-01-28"	"2013-09-03"	"2014-01-28"	NA	"2014-01-28T13:00"	NA	NA	708	67	"YEARS"	"M"	"BLACK OR AFRICAN AMERICAN"	"NOT HISPANIC OR LATINO"	"Pbo"	"Placebo"	"Pbo"	"Placebo"	"USA"	"2013-08-24"	-10	"Placebo"	"Placebo"	"2013-09-03T00:00:00Z"	"H"	"2014-01-28T23:59:59Z"	"H"	"2013-09-03"	"2014-01-28"	148	NA	"2014-01-28"	"DISCONTINUED"	NA	"2013-09-03"	NA	NA	NA	"2014-01-28"	">=65"	"Y"	"Non-white"	NA	NA	NA	NA	NA
"156"	"CDISCPILOT01"	"01-708-1406"	1406	"2013-12-26"	"2014-07-02"	"2013-12-26"	"2014-07-02"	NA	"2014-07-02T13:45"	NA	NA	708	71	"YEARS"	"F"	"WHITE"	"NOT HISPANIC OR LATINO"	"Xan_Hi"	"Xanomeline High Dose"	"Xan_Hi"	"Xanomeline High Dose"	"USA"	"2013-12-06"	-20	"Xanomeline High Dose"	"Xanomeline High Dose"	"2013-12-26T00:00:00Z"	"H"	"2014-07-02T23:59:59Z"	"H"	"2013-12-26"	"2014-07-02"	189	NA	"2014-07-02"	"COMPLETED"	NA	"2013-12-26"	NA	NA	NA	"2014-07-02"	">=65"	"Y"	"White"	NA	NA	NA	NA	NA
"157"	"CDISCPILOT01"	"01-708-1428"	1428	"2013-11-09"	"2014-01-31"	"2013-11-09"	"2013-12-14"	NA	"2014-01-31T11:10"	NA	NA	708	84	"YEARS"	"F"	"WHITE"	"NOT HISPANIC OR LATINO"	"Xan_Lo"	"Xanomeline Low Dose"	"Xan_Lo"	"Xanomeline Low Dose"	"USA"	"2013-11-02"	-7	"Xanomeline Low Dose"	"Xanomeline Low Dose"	"2013-11-09T00:00:00Z"	"H"	"2013-12-14T23:59:59Z"	"H"	"2013-11-09"	"2013-12-14"	36	NA	"2014-01-31"	"DISCONTINUED"	NA	"2013-11-09"	NA	NA	NA	"2014-01-31"	">=65"	"Y"	"White"	NA	NA	NA	NA	NA
"158"	"CDISCPILOT01"	"01-709-1001"	1001	"2013-10-08"	"2014-04-08"	"2013-10-08"	"2014-04-08"	NA	"2014-04-08"	NA	NA	709	76	"YEARS"	"F"	"WHITE"	"NOT HISPANIC OR LATINO"	"Pbo"	"Placebo"	"Pbo"	"Placebo"	"USA"	"2013-09-20"	-18	"Placebo"	"Placebo"	"2013-10-08T00:00:00Z"	"H"	"2014-04-08T23:59:59Z"	"H"	"2013-10-08"	"2014-04-08"	183	NA	"2014-04-08"	"COMPLETED"	NA	"2013-10-08"	NA	NA	NA	"2014-04-08"	">=65"	"Y"	"White"	NA	NA	NA	NA	NA
"159"	"CDISCPILOT01"	"01-709-1007"	1007	"2012-07-31"	"2012-09-01"	"2012-07-31"	"2012-08-28"	NA	"2012-09-07"	NA	NA	709	54	"YEARS"	"F"	"WHITE"	"NOT HISPANIC OR LATINO"	"Xan_Lo"	"Xanomeline Low Dose"	"Xan_Lo"	"Xanomeline Low Dose"	"USA"	"2012-07-21"	-10	"Xanomeline Low Dose"	"Xanomeline Low Dose"	"2012-07-31T00:00:00Z"	"H"	"2012-08-28T23:59:59Z"	"H"	"2012-07-31"	"2012-08-28"	29	NA	"2012-09-01"	"DISCONTINUED"	NA	"2012-07-31"	NA	NA	NA	"2012-09-01"	"18-64"	"Y"	"White"	NA	NA	NA	NA	NA
"160"	"CDISCPILOT01"	"01-709-1020"	1020	"2012-12-01"	"2013-06-01"	"2012-12-01"	"2013-06-01"	NA	"2013-06-01T10:40"	NA	NA	709	72	"YEARS"	"F"	"WHITE"	"NOT HISPANIC OR LATINO"	"Xan_Lo"	"Xanomeline Low Dose"	"Xan_Lo"	"Xanomeline Low Dose"	"USA"	"2012-11-22"	-9	"Xanomeline Low Dose"	"Xanomeline Low Dose"	"2012-12-01T00:00:00Z"	"H"	"2013-06-01T23:59:59Z"	"H"	"2012-12-01"	"2013-06-01"	183	NA	"2013-06-01"	"COMPLETED"	NA	"2012-12-01"	NA	NA	NA	"2013-06-01"	">=65"	"Y"	"White"	NA	NA	NA	NA	NA
"161"	"CDISCPILOT01"	"01-709-1029"	1029	"2012-12-25"	"2013-06-26"	"2012-12-25"	"2013-06-26"	NA	"2013-06-26T10:58"	NA	NA	709	82	"YEARS"	"M"	"WHITE"	"NOT HISPANIC OR LATINO"	"Xan_Hi"	"Xanomeline High Dose"	"Xan_Hi"	"Xanomeline High Dose"	"USA"	"2012-12-10"	-15	"Xanomeline High Dose"	"Xanomeline High Dose"	"2012-12-25T00:00:00Z"	"H"	"2013-06-26T23:59:59Z"	"H"	"2012-12-25"	"2013-06-26"	184	NA	"2013-06-26"	"COMPLETED"	NA	"2012-12-25"	NA	NA	NA	"2013-06-26"	">=65"	"Y"	"White"	NA	NA	NA	NA	NA
"162"	"CDISCPILOT01"	"01-709-1081"	1081	"2014-01-18"	"2014-05-10"	"2014-01-18"	"2014-04-27"	NA	"2014-05-10T11:15"	NA	NA	709	86	"YEARS"	"F"	"WHITE"	"NOT HISPANIC OR LATINO"	"Xan_Lo"	"Xanomeline Low Dose"	"Xan_Lo"	"Xanomeline Low Dose"	"USA"	"2014-01-09"	-9	"Xanomeline Low Dose"	"Xanomeline Low Dose"	"2014-01-18T00:00:00Z"	"H"	"2014-04-27T23:59:59Z"	"H"	"2014-01-18"	"2014-04-27"	100	NA	"2014-05-10"	"DISCONTINUED"	NA	"2014-01-18"	NA	NA	NA	"2014-05-10"	">=65"	"Y"	"White"	NA	NA	NA	NA	NA
"163"	"CDISCPILOT01"	"01-709-1088"	1088	"2014-04-12"	"2014-10-09"	"2014-04-12"	"2014-10-09"	NA	"2014-10-09T13:25"	NA	NA	709	69	"YEARS"	"M"	"WHITE"	"NOT HISPANIC OR LATINO"	"Pbo"	"Placebo"	"Pbo"	"Placebo"	"USA"	"2014-03-30"	-13	"Placebo"	"Placebo"	"2014-04-12T00:00:00Z"	"H"	"2014-10-09T23:59:59Z"	"H"	"2014-04-12"	"2014-10-09"	181	NA	"2014-10-09"	"COMPLETED"	NA	"2014-04-12"	NA	NA	NA	"2014-10-09"	">=65"	"Y"	"White"	NA	NA	NA	NA	NA
"164"	"CDISCPILOT01"	"01-709-1099"	1099	"2013-10-25"	"2014-04-25"	"2013-10-25"	"2014-04-25"	NA	"2014-04-25T09:10"	NA	NA	709	79	"YEARS"	"F"	"WHITE"	"NOT HISPANIC OR LATINO"	"Xan_Hi"	"Xanomeline High Dose"	"Xan_Hi"	"Xanomeline High Dose"	"USA"	"2013-10-14"	-11	"Xanomeline High Dose"	"Xanomeline High Dose"	"2013-10-25T00:00:00Z"	"H"	"2014-04-25T23:59:59Z"	"H"	"2013-10-25"	"2014-04-25"	183	NA	"2014-04-25"	"COMPLETED"	NA	"2013-10-25"	NA	NA	NA	"2014-04-25"	">=65"	"Y"	"White"	NA	NA	NA	NA	NA
"165"	"CDISCPILOT01"	"01-709-1102"	1102	"2013-01-15"	"2013-03-31"	"2013-01-15"	"2013-03-27"	NA	"2013-05-12"	NA	NA	709	71	"YEARS"	"F"	"WHITE"	"NOT HISPANIC OR LATINO"	"Xan_Lo"	"Xanomeline Low Dose"	"Xan_Lo"	"Xanomeline Low Dose"	"USA"	"2013-01-07"	-8	"Xanomeline Low Dose"	"Xanomeline Low Dose"	"2013-01-15T00:00:00Z"	"H"	"2013-03-27T23:59:59Z"	"H"	"2013-01-15"	"2013-03-27"	72	NA	"2013-03-31"	"DISCONTINUED"	NA	"2013-01-15"	NA	NA	NA	"2013-03-31"	">=65"	"Y"	"White"	NA	NA	NA	NA	NA
"166"	"CDISCPILOT01"	"01-709-1168"	1168	"2013-08-02"	"2013-09-27"	"2013-08-02"	"2013-09-26"	NA	"2013-11-01"	NA	NA	709	72	"YEARS"	"F"	"WHITE"	"NOT HISPANIC OR LATINO"	"Xan_Hi"	"Xanomeline High Dose"	"Xan_Hi"	"Xanomeline High Dose"	"USA"	"2013-07-25"	-8	"Xanomeline High Dose"	"Xanomeline High Dose"	"2013-08-02T00:00:00Z"	"H"	"2013-09-26T23:59:59Z"	"H"	"2013-08-02"	"2013-09-26"	56	NA	"2013-09-27"	"DISCONTINUED"	NA	"2013-08-02"	NA	NA	NA	"2013-10-11"	">=65"	"Y"	"White"	NA	NA	NA	NA	NA
"167"	"CDISCPILOT01"	"01-709-1217"	1217	"2013-03-04"	"2013-06-25"	"2013-03-04"	"2013-06-11"	NA	"2013-06-25T10:35"	NA	NA	709	77	"YEARS"	"M"	"WHITE"	"NOT HISPANIC OR LATINO"	"Xan_Lo"	"Xanomeline Low Dose"	"Xan_Lo"	"Xanomeline Low Dose"	"USA"	"2013-02-16"	-16	"Xanomeline Low Dose"	"Xanomeline Low Dose"	"2013-03-04T00:00:00Z"	"H"	"2013-06-11T23:59:59Z"	"H"	"2013-03-04"	"2013-06-11"	100	NA	"2013-06-25"	"DISCONTINUED"	NA	"2013-03-04"	NA	NA	NA	"2013-06-25"	">=65"	"Y"	"White"	NA	NA	NA	NA	NA
"168"	"CDISCPILOT01"	"01-709-1224"	1224	NA	NA	NA	NA	NA	"2013-11-24"	NA	NA	709	84	"YEARS"	"M"	"WHITE"	"NOT HISPANIC OR LATINO"	"Scrnfail"	"Screen Failure"	"Scrnfail"	"Screen Failure"	"USA"	"2013-11-18"	NA	"Screen Failure"	"Screen Failure"	NA	NA	NA	NA	NA	NA	NA	"2013-11-18"	NA	NA	NA	NA	NA	NA	NA	NA	">=65"	NA	"White"	NA	NA	NA	NA	NA
"169"	"CDISCPILOT01"	"01-709-1237"	1237	NA	NA	NA	NA	NA	"2014-03-04"	NA	NA	709	88	"YEARS"	"F"	"WHITE"	"HISPANIC OR LATINO"	"Scrnfail"	"Screen Failure"	"Scrnfail"	"Screen Failure"	"USA"	"2014-01-17"	NA	"Screen Failure"	"Screen Failure"	NA	NA	NA	NA	NA	NA	NA	"2014-01-17"	NA	NA	NA	NA	NA	NA	NA	NA	">=65"	NA	"White"	NA	NA	NA	NA	NA
"170"	"CDISCPILOT01"	"01-709-1238"	1238	"2013-05-15"	"2013-08-07"	"2013-05-15"	"2013-08-06"	NA	"2013-08-13"	NA	NA	709	69	"YEARS"	"M"	"WHITE"	"NOT HISPANIC OR LATINO"	"Xan_Hi"	"Xanomeline High Dose"	"Xan_Hi"	"Xanomeline High Dose"	"USA"	"2013-05-02"	-13	"Xanomeline High Dose"	"Xanomeline High Dose"	"2013-05-15T00:00:00Z"	"H"	"2013-08-06T23:59:59Z"	"H"	"2013-05-15"	"2013-08-06"	84	NA	"2013-08-07"	"DISCONTINUED"	NA	"2013-05-15"	NA	NA	NA	"2013-08-07"	">=65"	"Y"	"White"	NA	NA	NA	NA	NA
"171"	"CDISCPILOT01"	"01-709-1259"	1259	"2013-01-26"	"2013-06-13"	"2013-01-26"	"2013-06-13"	NA	"2013-06-13T12:23"	NA	NA	709	82	"YEARS"	"M"	"WHITE"	"NOT HISPANIC OR LATINO"	"Pbo"	"Placebo"	"Pbo"	"Placebo"	"USA"	"2013-01-13"	-13	"Placebo"	"Placebo"	"2013-01-26T00:00:00Z"	"H"	"2013-06-13T23:59:59Z"	"H"	"2013-01-26"	"2013-06-13"	139	NA	"2013-06-13"	"DISCONTINUED"	NA	"2013-01-26"	NA	NA	NA	"2013-06-13"	">=65"	"Y"	"White"	NA	NA	NA	NA	NA
"172"	"CDISCPILOT01"	"01-709-1285"	1285	"2013-03-24"	"2013-05-31"	"2013-03-24"	"2013-05-23"	NA	"2013-05-31T13:15"	NA	NA	709	87	"YEARS"	"M"	"WHITE"	"NOT HISPANIC OR LATINO"	"Xan_Lo"	"Xanomeline Low Dose"	"Xan_Lo"	"Xanomeline Low Dose"	"USA"	"2013-03-17"	-7	"Xanomeline Low Dose"	"Xanomeline Low Dose"	"2013-03-24T00:00:00Z"	"H"	"2013-05-23T23:59:59Z"	"H"	"2013-03-24"	"2013-05-23"	61	NA	"2013-05-31"	"DISCONTINUED"	NA	"2013-03-24"	NA	NA	NA	"2013-05-31"	">=65"	"Y"	"White"	NA	NA	NA	NA	NA
"173"	"CDISCPILOT01"	"01-709-1301"	1301	"2013-07-19"	"2014-01-17"	"2013-07-19"	"2014-01-17"	NA	"2014-01-17T10:07"	NA	NA	709	62	"YEARS"	"F"	"WHITE"	"NOT HISPANIC OR LATINO"	"Pbo"	"Placebo"	"Pbo"	"Placebo"	"USA"	"2013-07-14"	-5	"Placebo"	"Placebo"	"2013-07-19T00:00:00Z"	"H"	"2014-01-17T23:59:59Z"	"H"	"2013-07-19"	"2014-01-17"	183	NA	"2014-01-17"	"COMPLETED"	NA	"2013-07-19"	NA	NA	NA	"2014-01-17"	"18-64"	"Y"	"White"	NA	NA	NA	NA	NA
"174"	"CDISCPILOT01"	"01-709-1306"	1306	"2014-02-03"	"2014-06-25"	"2014-02-03"	"2014-06-16"	NA	"2014-06-25T10:45"	NA	NA	709	60	"YEARS"	"F"	"WHITE"	"NOT HISPANIC OR LATINO"	"Pbo"	"Placebo"	"Pbo"	"Placebo"	"USA"	"2014-01-19"	-15	"Placebo"	"Placebo"	"2014-02-03T00:00:00Z"	"H"	"2014-06-16T23:59:59Z"	"H"	"2014-02-03"	"2014-06-16"	134	NA	"2014-06-25"	"DISCONTINUED"	NA	"2014-02-03"	NA	NA	NA	"2014-06-25"	"18-64"	"Y"	"White"	NA	NA	NA	NA	NA
"175"	"CDISCPILOT01"	"01-709-1309"	1309	"2013-06-19"	"2013-12-19"	"2013-06-19"	"2013-12-19"	NA	"2013-12-19T10:35"	NA	NA	709	65	"YEARS"	"M"	"WHITE"	"NOT HISPANIC OR LATINO"	"Xan_Hi"	"Xanomeline High Dose"	"Xan_Hi"	"Xanomeline High Dose"	"USA"	"2013-06-09"	-10	"Xanomeline High Dose"	"Xanomeline High Dose"	"2013-06-19T00:00:00Z"	"H"	"2013-12-19T23:59:59Z"	"H"	"2013-06-19"	"2013-12-19"	184	NA	"2013-12-19"	"COMPLETED"	NA	"2013-06-19"	NA	NA	NA	"2013-12-19"	">=65"	"Y"	"White"	NA	NA	NA	NA	NA
"176"	"CDISCPILOT01"	"01-709-1312"	1312	"2014-04-20"	"2014-10-19"	"2014-04-20"	"2014-10-19"	NA	"2014-10-19T10:00"	NA	NA	709	68	"YEARS"	"F"	"WHITE"	"NOT HISPANIC OR LATINO"	"Pbo"	"Placebo"	"Pbo"	"Placebo"	"USA"	"2014-04-13"	-7	"Placebo"	"Placebo"	"2014-04-20T00:00:00Z"	"H"	"2014-10-19T23:59:59Z"	"H"	"2014-04-20"	"2014-10-19"	183	NA	"2014-10-19"	"COMPLETED"	NA	"2014-04-20"	NA	NA	NA	"2014-10-19"	">=65"	"Y"	"White"	NA	NA	NA	NA	NA
"177"	"CDISCPILOT01"	"01-709-1326"	1326	"2013-04-05"	"2013-10-02"	"2013-04-05"	"2013-10-02"	NA	"2013-10-02T09:40"	NA	NA	709	75	"YEARS"	"F"	"WHITE"	"NOT HISPANIC OR LATINO"	"Xan_Lo"	"Xanomeline Low Dose"	"Xan_Lo"	"Xanomeline Low Dose"	"USA"	"2013-03-21"	-15	"Xanomeline Low Dose"	"Xanomeline Low Dose"	"2013-04-05T00:00:00Z"	"H"	"2013-10-02T23:59:59Z"	"H"	"2013-04-05"	"2013-10-02"	181	NA	"2013-10-02"	"COMPLETED"	NA	"2013-04-05"	NA	NA	NA	"2013-10-02"	">=65"	"Y"	"White"	NA	NA	NA	NA	NA
"178"	"CDISCPILOT01"	"01-709-1329"	1329	"2013-08-15"	"2013-08-29"	"2013-08-15"	"2013-08-25"	NA	"2013-08-29T10:35"	NA	NA	709	70	"YEARS"	"M"	"WHITE"	"NOT HISPANIC OR LATINO"	"Xan_Hi"	"Xanomeline High Dose"	"Xan_Lo"	"Xanomeline Low Dose"	"USA"	"2013-08-01"	-14	"Xanomeline High Dose"	"Xanomeline Low Dose"	"2013-08-15T00:00:00Z"	"H"	"2013-08-25T23:59:59Z"	"H"	"2013-08-15"	"2013-08-25"	11	NA	"2013-08-29"	"DISCONTINUED"	NA	"2013-08-15"	NA	NA	NA	"2013-08-29"	">=65"	"Y"	"White"	NA	NA	NA	NA	NA
"179"	"CDISCPILOT01"	"01-709-1339"	1339	"2012-12-23"	"2013-06-24"	"2012-12-23"	"2013-06-24"	NA	"2013-06-24T10:10"	NA	NA	709	81	"YEARS"	"M"	"WHITE"	"NOT HISPANIC OR LATINO"	"Pbo"	"Placebo"	"Pbo"	"Placebo"	"USA"	"2012-12-15"	-8	"Placebo"	"Placebo"	"2012-12-23T00:00:00Z"	"H"	"2013-06-24T23:59:59Z"	"H"	"2012-12-23"	"2013-06-24"	184	NA	"2013-06-24"	"COMPLETED"	NA	"2012-12-23"	NA	NA	NA	"2013-06-24"	">=65"	"Y"	"White"	NA	NA	NA	NA	NA
"180"	"CDISCPILOT01"	"01-709-1424"	1424	"2013-03-03"	"2013-03-08"	"2013-03-03"	"2013-03-07"	NA	"2013-03-17"	NA	NA	709	77	"YEARS"	"M"	"WHITE"	"NOT HISPANIC OR LATINO"	"Xan_Hi"	"Xanomeline High Dose"	"Xan_Lo"	"Xanomeline Low Dose"	"USA"	"2013-02-15"	-16	"Xanomeline High Dose"	"Xanomeline Low Dose"	"2013-03-03T00:00:00Z"	"H"	"2013-03-07T23:59:59Z"	"H"	"2013-03-03"	"2013-03-07"	5	NA	"2013-03-08"	"DISCONTINUED"	NA	"2013-03-03"	NA	NA	NA	"2013-03-17"	">=65"	"Y"	"White"	NA	NA	NA	NA	NA
"181"	"CDISCPILOT01"	"01-710-1002"	1002	"2014-01-14"	"2014-01-18"	"2014-01-14"	"2014-01-18"	NA	"2014-01-20"	NA	NA	710	88	"YEARS"	"M"	"WHITE"	"NOT HISPANIC OR LATINO"	"Xan_Lo"	"Xanomeline Low Dose"	"Xan_Lo"	"Xanomeline Low Dose"	"USA"	"2013-12-30"	-15	"Xanomeline Low Dose"	"Xanomeline Low Dose"	"2014-01-14T00:00:00Z"	"H"	"2014-01-18T23:59:59Z"	"H"	"2014-01-14"	"2014-01-18"	5	NA	"2014-01-18"	"DISCONTINUED"	NA	"2014-01-14"	NA	NA	NA	"2014-01-20"	">=65"	"Y"	"White"	NA	NA	NA	NA	NA
"182"	"CDISCPILOT01"	"01-710-1006"	1006	"2013-02-10"	"2013-08-10"	"2013-02-10"	"2013-08-09"	NA	"2013-08-10T10:10"	NA	NA	710	77	"YEARS"	"M"	"WHITE"	"NOT HISPANIC OR LATINO"	"Xan_Hi"	"Xanomeline High Dose"	"Xan_Hi"	"Xanomeline High Dose"	"USA"	"2013-01-27"	-14	"Xanomeline High Dose"	"Xanomeline High Dose"	"2013-02-10T00:00:00Z"	"H"	"2013-08-09T23:59:59Z"	"H"	"2013-02-10"	"2013-08-09"	181	NA	"2013-08-10"	"COMPLETED"	NA	"2013-02-10"	NA	NA	NA	"2013-08-10"	">=65"	"Y"	"White"	NA	NA	NA	NA	NA
"183"	"CDISCPILOT01"	"01-710-1021"	1021	"2013-09-27"	"2013-11-12"	"2013-09-27"	"2013-10-29"	NA	"2013-11-22"	NA	NA	710	79	"YEARS"	"M"	"BLACK OR AFRICAN AMERICAN"	"NOT HISPANIC OR LATINO"	"Xan_Hi"	"Xanomeline High Dose"	"Xan_Hi"	"Xanomeline High Dose"	"USA"	"2013-09-19"	-8	"Xanomeline High Dose"	"Xanomeline High Dose"	"2013-09-27T00:00:00Z"	"H"	"2013-10-29T23:59:59Z"	"H"	"2013-09-27"	"2013-10-29"	33	NA	"2013-11-12"	"DISCONTINUED"	NA	"2013-09-27"	NA	NA	NA	"2013-11-12"	">=65"	"Y"	"Non-white"	NA	NA	NA	NA	NA
"184"	"CDISCPILOT01"	"01-710-1027"	1027	"2014-02-28"	"2014-08-29"	"2014-02-28"	"2014-08-29"	NA	"2014-08-29T11:05"	NA	NA	710	83	"YEARS"	"M"	"WHITE"	"NOT HISPANIC OR LATINO"	"Pbo"	"Placebo"	"Pbo"	"Placebo"	"USA"	"2014-02-03"	-25	"Placebo"	"Placebo"	"2014-02-28T00:00:00Z"	"H"	"2014-08-29T23:59:59Z"	"H"	"2014-02-28"	"2014-08-29"	183	NA	"2014-08-29"	"COMPLETED"	NA	"2014-02-28"	NA	NA	NA	"2014-08-29"	">=65"	"Y"	"White"	NA	NA	NA	NA	NA
"185"	"CDISCPILOT01"	"01-710-1045"	1045	"2013-06-03"	"2013-08-17"	"2013-06-03"	"2013-08-13"	NA	"2013-09-08"	NA	NA	710	83	"YEARS"	"F"	"WHITE"	"NOT HISPANIC OR LATINO"	"Xan_Lo"	"Xanomeline Low Dose"	"Xan_Lo"	"Xanomeline Low Dose"	"USA"	"2013-05-20"	-14	"Xanomeline Low Dose"	"Xanomeline Low Dose"	"2013-06-03T00:00:00Z"	"H"	"2013-08-13T23:59:59Z"	"H"	"2013-06-03"	"2013-08-13"	72	NA	"2013-08-17"	"DISCONTINUED"	NA	"2013-06-03"	NA	NA	NA	"2013-08-17"	">=65"	"Y"	"White"	NA	NA	NA	NA	NA
"186"	"CDISCPILOT01"	"01-710-1053"	1053	"2012-12-26"	"2013-02-15"	"2012-12-26"	"2013-02-10"	NA	"2013-02-26T13:25"	NA	NA	710	84	"YEARS"	"F"	"WHITE"	"NOT HISPANIC OR LATINO"	"Xan_Lo"	"Xanomeline Low Dose"	"Xan_Lo"	"Xanomeline Low Dose"	"USA"	"2012-12-15"	-11	"Xanomeline Low Dose"	"Xanomeline Low Dose"	"2012-12-26T00:00:00Z"	"H"	"2013-02-10T23:59:59Z"	"H"	"2012-12-26"	"2013-02-10"	47	NA	"2013-02-15"	"DISCONTINUED"	NA	"2012-12-26"	NA	NA	NA	"2013-02-26"	">=65"	"Y"	"White"	NA	NA	NA	NA	NA
"187"	"CDISCPILOT01"	"01-710-1060"	1060	"2013-01-01"	"2013-07-05"	"2013-01-01"	"2013-07-05"	NA	"2013-07-05T14:40"	NA	NA	710	82	"YEARS"	"M"	"WHITE"	"NOT HISPANIC OR LATINO"	"Pbo"	"Placebo"	"Pbo"	"Placebo"	"USA"	"2012-12-24"	-8	"Placebo"	"Placebo"	"2013-01-01T00:00:00Z"	"H"	"2013-07-05T23:59:59Z"	"H"	"2013-01-01"	"2013-07-05"	186	NA	"2013-07-05"	"COMPLETED"	NA	"2013-01-01"	NA	NA	NA	"2013-07-05"	">=65"	"Y"	"White"	NA	NA	NA	NA	NA
"188"	"CDISCPILOT01"	"01-710-1070"	1070	"2012-09-08"	"2013-02-23"	"2012-09-08"	"2013-01-22"	NA	"2013-07-04"	NA	NA	710	85	"YEARS"	"F"	"WHITE"	"NOT HISPANIC OR LATINO"	"Xan_Hi"	"Xanomeline High Dose"	"Xan_Hi"	"Xanomeline High Dose"	"USA"	"2012-08-28"	-11	"Xanomeline High Dose"	"Xanomeline High Dose"	"2012-09-08T00:00:00Z"	"H"	"2013-01-22T23:59:59Z"	"H"	"2012-09-08"	"2013-01-22"	137	NA	"2013-02-23"	"DISCONTINUED"	NA	"2012-09-08"	NA	NA	NA	"2013-02-05"	">=65"	"Y"	"White"	NA	NA	NA	NA	NA
"189"	"CDISCPILOT01"	"01-710-1077"	1077	"2013-11-17"	"2014-05-18"	"2013-11-17"	"2014-05-18"	NA	"2014-05-18T09:50"	NA	NA	710	76	"YEARS"	"F"	"WHITE"	"NOT HISPANIC OR LATINO"	"Pbo"	"Placebo"	"Pbo"	"Placebo"	"USA"	"2013-11-03"	-14	"Placebo"	"Placebo"	"2013-11-17T00:00:00Z"	"H"	"2014-05-18T23:59:59Z"	"H"	"2013-11-17"	"2014-05-18"	183	NA	"2014-05-18"	"COMPLETED"	NA	"2013-11-17"	NA	NA	NA	"2014-05-18"	">=65"	"Y"	"White"	NA	NA	NA	NA	NA
"190"	"CDISCPILOT01"	"01-710-1078"	1078	"2013-09-17"	"2014-03-23"	"2013-09-17"	"2014-03-23"	NA	"2014-03-23T16:00"	NA	NA	710	81	"YEARS"	"F"	"WHITE"	"NOT HISPANIC OR LATINO"	"Pbo"	"Placebo"	"Pbo"	"Placebo"	"USA"	"2013-09-06"	-11	"Placebo"	"Placebo"	"2013-09-17T00:00:00Z"	"H"	"2014-03-23T23:59:59Z"	"H"	"2013-09-17"	"2014-03-23"	188	NA	"2014-03-23"	"COMPLETED"	NA	"2013-09-17"	NA	NA	NA	"2014-03-23"	">=65"	"Y"	"White"	NA	NA	NA	NA	NA
"191"	"CDISCPILOT01"	"01-710-1083"	1083	"2013-07-22"	"2013-08-03"	"2013-07-22"	"2013-08-01"	NA	"2013-08-03"	"2013-08-02"	"Y"	710	89	"YEARS"	"F"	"WHITE"	"NOT HISPANIC OR LATINO"	"Pbo"	"Placebo"	"Pbo"	"Placebo"	"USA"	"2013-07-09"	-13	"Placebo"	"Placebo"	"2013-07-22T00:00:00Z"	"H"	"2013-08-01T23:59:59Z"	"H"	"2013-07-22"	"2013-08-01"	11	NA	"2013-08-02"	"DISCONTINUED"	NA	"2013-07-22"	"2013-08-02"	12	1	"2013-08-02"	">=65"	"Y"	"White"	NA	"<= 30"	"Y"	NA	"Y"
"192"	"CDISCPILOT01"	"01-710-1129"	1129	NA	NA	NA	NA	NA	"2013-03-17"	NA	NA	710	69	"YEARS"	"F"	"BLACK OR AFRICAN AMERICAN"	"NOT HISPANIC OR LATINO"	"Scrnfail"	"Screen Failure"	"Scrnfail"	"Screen Failure"	"USA"	"2013-03-05"	NA	"Screen Failure"	"Screen Failure"	NA	NA	NA	NA	NA	NA	NA	"2013-03-05"	NA	NA	NA	NA	NA	NA	NA	NA	">=65"	NA	"Non-white"	NA	NA	NA	NA	NA
"193"	"CDISCPILOT01"	"01-710-1137"	1137	"2013-10-11"	"2013-11-13"	"2013-10-11"	"2013-11-13"	NA	"2013-11-25"	NA	NA	710	79	"YEARS"	"F"	"BLACK OR AFRICAN AMERICAN"	"NOT HISPANIC OR LATINO"	"Xan_Hi"	"Xanomeline High Dose"	"Xan_Hi"	"Xanomeline High Dose"	"USA"	"2013-10-03"	-8	"Xanomeline High Dose"	"Xanomeline High Dose"	"2013-10-11T00:00:00Z"	"H"	"2013-11-13T23:59:59Z"	"H"	"2013-10-11"	"2013-11-13"	34	NA	"2013-11-13"	"DISCONTINUED"	NA	"2013-10-11"	NA	NA	NA	"2013-11-13"	">=65"	"Y"	"Non-white"	NA	NA	NA	NA	NA
"194"	"CDISCPILOT01"	"01-710-1142"	1142	"2012-10-02"	"2012-10-23"	"2012-10-02"	"2012-10-20"	NA	"2012-10-28"	NA	NA	710	76	"YEARS"	"F"	"WHITE"	"NOT HISPANIC OR LATINO"	"Xan_Hi"	"Xanomeline High Dose"	"Xan_Hi"	"Xanomeline High Dose"	"USA"	"2012-09-12"	-20	"Xanomeline High Dose"	"Xanomeline High Dose"	"2012-10-02T00:00:00Z"	"H"	"2012-10-20T23:59:59Z"	"H"	"2012-10-02"	"2012-10-20"	19	NA	"2012-10-23"	"DISCONTINUED"	NA	"2012-10-02"	NA	NA	NA	"2012-10-23"	">=65"	"Y"	"White"	NA	NA	NA	NA	NA
"195"	"CDISCPILOT01"	"01-710-1149"	1149	NA	NA	NA	NA	NA	"2013-12-01"	NA	NA	710	79	"YEARS"	"F"	"WHITE"	"NOT HISPANIC OR LATINO"	"Scrnfail"	"Screen Failure"	"Scrnfail"	"Screen Failure"	"USA"	"2013-11-16"	NA	"Screen Failure"	"Screen Failure"	NA	NA	NA	NA	NA	NA	NA	"2013-11-16"	NA	NA	NA	NA	NA	NA	NA	NA	">=65"	NA	"White"	NA	NA	NA	NA	NA
"196"	"CDISCPILOT01"	"01-710-1154"	1154	"2014-03-29"	"2014-05-09"	"2014-03-29"	"2014-04-27"	NA	"2014-06-13"	NA	NA	710	84	"YEARS"	"M"	"WHITE"	"HISPANIC OR LATINO"	"Xan_Lo"	"Xanomeline Low Dose"	"Xan_Lo"	"Xanomeline Low Dose"	"USA"	"2014-03-08"	-21	"Xanomeline Low Dose"	"Xanomeline Low Dose"	"2014-03-29T00:00:00Z"	"H"	"2014-04-27T23:59:59Z"	"H"	"2014-03-29"	"2014-04-27"	30	NA	"2014-05-09"	"DISCONTINUED"	NA	"2014-03-29"	NA	NA	NA	"2014-05-09"	">=65"	"Y"	"White"	NA	NA	NA	NA	NA
"197"	"CDISCPILOT01"	"01-710-1166"	1166	"2012-11-30"	"2013-03-30"	"2012-11-30"	"2013-03-19"	NA	"2013-05-22"	NA	NA	710	81	"YEARS"	"F"	"WHITE"	"NOT HISPANIC OR LATINO"	"Xan_Lo"	"Xanomeline Low Dose"	"Xan_Lo"	"Xanomeline Low Dose"	"USA"	"2012-11-10"	-20	"Xanomeline Low Dose"	"Xanomeline Low Dose"	"2012-11-30T00:00:00Z"	"H"	"2013-03-19T23:59:59Z"	"H"	"2012-11-30"	"2013-03-19"	110	NA	"2013-03-30"	"DISCONTINUED"	NA	"2012-11-30"	NA	NA	NA	"2013-03-30"	">=65"	"Y"	"White"	NA	NA	NA	NA	NA
"198"	"CDISCPILOT01"	"01-710-1183"	1183	"2013-11-16"	"2014-05-17"	"2013-11-16"	"2014-05-17"	NA	"2014-05-17T11:55"	NA	NA	710	80	"YEARS"	"F"	"WHITE"	"NOT HISPANIC OR LATINO"	"Pbo"	"Placebo"	"Pbo"	"Placebo"	"USA"	"2013-10-24"	-23	"Placebo"	"Placebo"	"2013-11-16T00:00:00Z"	"H"	"2014-05-17T23:59:59Z"	"H"	"2013-11-16"	"2014-05-17"	183	NA	"2014-05-17"	"COMPLETED"	NA	"2013-11-16"	NA	NA	NA	"2014-05-17"	">=65"	"Y"	"White"	NA	NA	NA	NA	NA
"199"	"CDISCPILOT01"	"01-710-1187"	1187	"2012-11-10"	"2013-05-12"	"2012-11-10"	"2013-05-12"	NA	"2013-05-12T11:05"	NA	NA	710	78	"YEARS"	"F"	"WHITE"	"NOT HISPANIC OR LATINO"	"Xan_Hi"	"Xanomeline High Dose"	"Xan_Hi"	"Xanomeline High Dose"	"USA"	"2012-10-26"	-15	"Xanomeline High Dose"	"Xanomeline High Dose"	"2012-11-10T00:00:00Z"	"H"	"2013-05-12T23:59:59Z"	"H"	"2012-11-10"	"2013-05-12"	184	NA	"2013-05-12"	"COMPLETED"	NA	"2012-11-10"	NA	NA	NA	"2013-05-12"	">=65"	"Y"	"White"	NA	NA	NA	NA	NA
"200"	"CDISCPILOT01"	"01-710-1235"	1235	"2012-09-26"	"2013-03-27"	"2012-09-26"	"2013-03-27"	NA	"2013-03-27T09:35"	NA	NA	710	56	"YEARS"	"F"	"WHITE"	"HISPANIC OR LATINO"	"Xan_Lo"	"Xanomeline Low Dose"	"Xan_Lo"	"Xanomeline Low Dose"	"USA"	"2012-09-13"	-13	"Xanomeline Low Dose"	"Xanomeline Low Dose"	"2012-09-26T00:00:00Z"	"H"	"2013-03-27T23:59:59Z"	"H"	"2012-09-26"	"2013-03-27"	183	NA	"2013-03-27"	"COMPLETED"	NA	"2012-09-26"	NA	NA	NA	"2013-03-27"	"18-64"	"Y"	"White"	NA	NA	NA	NA	NA
"201"	"CDISCPILOT01"	"01-710-1249"	1249	"2013-12-28"	"2014-06-28"	"2013-12-28"	"2014-06-28"	NA	"2014-06-28T11:05"	NA	NA	710	79	"YEARS"	"M"	"WHITE"	"NOT HISPANIC OR LATINO"	"Xan_Hi"	"Xanomeline High Dose"	"Xan_Hi"	"Xanomeline High Dose"	"USA"	"2013-12-19"	-9	"Xanomeline High Dose"	"Xanomeline High Dose"	"2013-12-28T00:00:00Z"	"H"	"2014-06-28T23:59:59Z"	"H"	"2013-12-28"	"2014-06-28"	183	NA	"2014-06-28"	"COMPLETED"	NA	"2013-12-28"	NA	NA	NA	"2014-06-28"	">=65"	"Y"	"White"	NA	NA	NA	NA	NA
"202"	"CDISCPILOT01"	"01-710-1257"	1257	NA	NA	NA	NA	NA	"2013-12-11"	NA	NA	710	85	"YEARS"	"F"	"WHITE"	"NOT HISPANIC OR LATINO"	"Scrnfail"	"Screen Failure"	"Scrnfail"	"Screen Failure"	"USA"	"2013-11-29"	NA	"Screen Failure"	"Screen Failure"	NA	NA	NA	NA	NA	NA	NA	"2013-11-29"	NA	NA	NA	NA	NA	NA	NA	NA	">=65"	NA	"White"	NA	NA	NA	NA	NA
"203"	"CDISCPILOT01"	"01-710-1264"	1264	"2013-06-13"	"2013-10-12"	"2013-06-13"	"2013-10-11"	NA	"2013-11-05"	NA	NA	710	78	"YEARS"	"M"	"WHITE"	"NOT HISPANIC OR LATINO"	"Pbo"	"Placebo"	"Pbo"	"Placebo"	"USA"	"2013-06-02"	-11	"Placebo"	"Placebo"	"2013-06-13T00:00:00Z"	"H"	"2013-10-11T23:59:59Z"	"H"	"2013-06-13"	"2013-10-11"	121	NA	"2013-10-12"	"DISCONTINUED"	NA	"2013-06-13"	NA	NA	NA	"2013-10-12"	">=65"	"Y"	"White"	NA	NA	NA	NA	NA
"204"	"CDISCPILOT01"	"01-710-1270"	1270	"2014-02-12"	"2014-03-01"	"2014-02-12"	"2014-03-01"	NA	"2014-03-26"	NA	NA	710	83	"YEARS"	"F"	"WHITE"	"NOT HISPANIC OR LATINO"	"Xan_Lo"	"Xanomeline Low Dose"	"Xan_Lo"	"Xanomeline Low Dose"	"USA"	"2014-02-01"	-11	"Xanomeline Low Dose"	"Xanomeline Low Dose"	"2014-02-12T00:00:00Z"	"H"	"2014-03-01T23:59:59Z"	"H"	"2014-02-12"	"2014-03-01"	18	NA	"2014-03-01"	"DISCONTINUED"	NA	"2014-02-12"	NA	NA	NA	"2014-03-01"	">=65"	"Y"	"White"	NA	NA	NA	NA	NA
"205"	"CDISCPILOT01"	"01-710-1271"	1271	"2012-09-27"	"2012-12-02"	"2012-09-27"	"2012-11-21"	NA	"2012-12-09"	NA	NA	710	86	"YEARS"	"F"	"WHITE"	"NOT HISPANIC OR LATINO"	"Pbo"	"Placebo"	"Pbo"	"Placebo"	"USA"	"2012-09-04"	-23	"Placebo"	"Placebo"	"2012-09-27T00:00:00Z"	"H"	"2012-11-21T23:59:59Z"	"H"	"2012-09-27"	"2012-11-21"	56	NA	"2012-12-02"	"DISCONTINUED"	NA	"2012-09-27"	NA	NA	NA	"2012-11-22"	">=65"	"Y"	"White"	NA	NA	NA	NA	NA
"206"	"CDISCPILOT01"	"01-710-1278"	1278	"2012-12-24"	"2013-03-03"	"2012-12-24"	"2013-02-26"	NA	"2013-03-10"	NA	NA	710	81	"YEARS"	"M"	"WHITE"	"NOT HISPANIC OR LATINO"	"Xan_Hi"	"Xanomeline High Dose"	"Xan_Hi"	"Xanomeline High Dose"	"USA"	"2012-12-13"	-11	"Xanomeline High Dose"	"Xanomeline High Dose"	"2012-12-24T00:00:00Z"	"H"	"2013-02-26T23:59:59Z"	"H"	"2012-12-24"	"2013-02-26"	65	NA	"2013-03-03"	"DISCONTINUED"	NA	"2012-12-24"	NA	NA	NA	"2013-03-07"	">=65"	"Y"	"White"	NA	NA	NA	NA	NA
"207"	"CDISCPILOT01"	"01-710-1300"	1300	"2012-12-15"	"2013-02-19"	"2012-12-15"	"2013-02-15"	NA	"2013-03-19"	NA	NA	710	78	"YEARS"	"F"	"WHITE"	"NOT HISPANIC OR LATINO"	"Xan_Lo"	"Xanomeline Low Dose"	"Xan_Lo"	"Xanomeline Low Dose"	"USA"	"2012-12-04"	-11	"Xanomeline Low Dose"	"Xanomeline Low Dose"	"2012-12-15T00:00:00Z"	"H"	"2013-02-15T23:59:59Z"	"H"	"2012-12-15"	"2013-02-15"	63	NA	"2013-02-19"	"DISCONTINUED"	NA	"2012-12-15"	NA	NA	NA	"2013-02-19"	">=65"	"Y"	"White"	NA	NA	NA	NA	NA
"208"	"CDISCPILOT01"	"01-710-1314"	1314	"2013-04-24"	"2013-05-25"	"2013-04-24"	"2013-05-23"	NA	"2013-05-25"	NA	NA	710	78	"YEARS"	"F"	"WHITE"	"NOT HISPANIC OR LATINO"	"Pbo"	"Placebo"	"Pbo"	"Placebo"	"USA"	"2013-04-21"	-3	"Placebo"	"Placebo"	"2013-04-24T00:00:00Z"	"H"	"2013-05-23T23:59:59Z"	"H"	"2013-04-24"	"2013-05-23"	30	NA	"2013-05-25"	"DISCONTINUED"	NA	"2013-04-24"	NA	NA	NA	"2013-05-24"	">=65"	"Y"	"White"	NA	NA	NA	NA	NA
"209"	"CDISCPILOT01"	"01-710-1315"	1315	"2013-02-27"	"2013-07-16"	"2013-02-27"	"2013-07-06"	NA	"2013-09-02"	NA	NA	710	83	"YEARS"	"F"	"WHITE"	"NOT HISPANIC OR LATINO"	"Pbo"	"Placebo"	"Pbo"	"Placebo"	"USA"	"2013-02-12"	-15	"Placebo"	"Placebo"	"2013-02-27T00:00:00Z"	"H"	"2013-07-06T23:59:59Z"	"H"	"2013-02-27"	"2013-07-06"	130	NA	"2013-07-16"	"DISCONTINUED"	NA	"2013-02-27"	NA	NA	NA	"2013-07-16"	">=65"	"Y"	"White"	NA	NA	NA	NA	NA
"210"	"CDISCPILOT01"	"01-710-1337"	1337	NA	NA	NA	NA	NA	"2014-01-26"	NA	NA	710	73	"YEARS"	"M"	"WHITE"	"NOT HISPANIC OR LATINO"	"Scrnfail"	"Screen Failure"	"Scrnfail"	"Screen Failure"	"USA"	"2013-12-30"	NA	"Screen Failure"	"Screen Failure"	NA	NA	NA	NA	NA	NA	NA	"2013-12-30"	NA	NA	NA	NA	NA	NA	NA	NA	">=65"	NA	"White"	NA	NA	NA	NA	NA
"211"	"CDISCPILOT01"	"01-710-1354"	1354	"2012-11-11"	"2013-05-01"	"2012-11-11"	"2013-05-01"	NA	"2013-05-01T14:05"	NA	NA	710	73	"YEARS"	"M"	"WHITE"	"NOT HISPANIC OR LATINO"	"Xan_Hi"	"Xanomeline High Dose"	"Xan_Hi"	"Xanomeline High Dose"	"USA"	"2012-10-29"	-13	"Xanomeline High Dose"	"Xanomeline High Dose"	"2012-11-11T00:00:00Z"	"H"	"2013-05-01T23:59:59Z"	"H"	"2012-11-11"	"2013-05-01"	172	NA	"2013-05-01"	"COMPLETED"	NA	"2012-11-11"	NA	NA	NA	"2013-05-01"	">=65"	"Y"	"White"	NA	NA	NA	NA	NA
"212"	"CDISCPILOT01"	"01-710-1358"	1358	"2012-09-17"	"2013-03-12"	"2012-09-17"	"2013-02-09"	NA	"2013-03-12"	NA	NA	710	82	"YEARS"	"M"	"WHITE"	"NOT HISPANIC OR LATINO"	"Xan_Lo"	"Xanomeline Low Dose"	"Xan_Lo"	"Xanomeline Low Dose"	"USA"	"2012-09-02"	-15	"Xanomeline Low Dose"	"Xanomeline Low Dose"	"2012-09-17T00:00:00Z"	"H"	"2013-02-09T23:59:59Z"	"H"	"2012-09-17"	"2013-02-09"	146	NA	"2013-03-12"	"DISCONTINUED"	NA	"2012-09-17"	NA	NA	NA	"2013-02-09"	">=65"	"Y"	"White"	NA	NA	NA	NA	NA
"213"	"CDISCPILOT01"	"01-710-1368"	1368	"2013-10-23"	"2014-04-24"	"2013-10-23"	"2014-04-24"	NA	"2014-04-24T10:10"	NA	NA	710	88	"YEARS"	"F"	"WHITE"	"NOT HISPANIC OR LATINO"	"Pbo"	"Placebo"	"Pbo"	"Placebo"	"USA"	"2013-10-21"	-2	"Placebo"	"Placebo"	"2013-10-23T00:00:00Z"	"H"	"2014-04-24T23:59:59Z"	"H"	"2013-10-23"	"2014-04-24"	184	NA	"2014-04-24"	"COMPLETED"	NA	"2013-10-23"	NA	NA	NA	"2014-04-24"	">=65"	"Y"	"White"	NA	NA	NA	NA	NA
"214"	"CDISCPILOT01"	"01-710-1376"	1376	NA	NA	NA	NA	NA	"2014-05-02"	NA	NA	710	89	"YEARS"	"F"	"WHITE"	"NOT HISPANIC OR LATINO"	"Scrnfail"	"Screen Failure"	"Scrnfail"	"Screen Failure"	"USA"	"2014-04-21"	NA	"Screen Failure"	"Screen Failure"	NA	NA	NA	NA	NA	NA	NA	"2014-04-21"	NA	NA	NA	NA	NA	NA	NA	NA	">=65"	NA	"White"	NA	NA	NA	NA	NA
"215"	"CDISCPILOT01"	"01-710-1380"	1380	NA	NA	NA	NA	NA	"2013-06-12"	NA	NA	710	80	"YEARS"	"F"	"WHITE"	"NOT HISPANIC OR LATINO"	"Scrnfail"	"Screen Failure"	"Scrnfail"	"Screen Failure"	"USA"	"2013-06-02"	NA	"Screen Failure"	"Screen Failure"	NA	NA	NA	NA	NA	NA	NA	"2013-06-02"	NA	NA	NA	NA	NA	NA	NA	NA	">=65"	NA	"White"	NA	NA	NA	NA	NA
"216"	"CDISCPILOT01"	"01-710-1385"	1385	"2012-10-29"	"2013-02-18"	"2012-10-29"	"2013-02-18"	NA	"2013-02-24"	NA	NA	710	77	"YEARS"	"M"	"WHITE"	"NOT HISPANIC OR LATINO"	"Xan_Lo"	"Xanomeline Low Dose"	"Xan_Lo"	"Xanomeline Low Dose"	"USA"	"2012-10-21"	-8	"Xanomeline Low Dose"	"Xanomeline Low Dose"	"2012-10-29T00:00:00Z"	"H"	"2013-02-18T23:59:59Z"	"H"	"2012-10-29"	"2013-02-18"	113	NA	"2013-02-18"	"DISCONTINUED"	NA	"2012-10-29"	NA	NA	NA	"2013-02-18"	">=65"	"Y"	"White"	NA	NA	NA	NA	NA
"217"	"CDISCPILOT01"	"01-710-1408"	1408	"2013-01-05"	"2013-07-12"	"2013-01-05"	"2013-07-12"	NA	"2013-07-12T14:35"	NA	NA	710	80	"YEARS"	"M"	"WHITE"	"NOT HISPANIC OR LATINO"	"Xan_Hi"	"Xanomeline High Dose"	"Xan_Hi"	"Xanomeline High Dose"	"USA"	"2012-12-26"	-10	"Xanomeline High Dose"	"Xanomeline High Dose"	"2013-01-05T00:00:00Z"	"H"	"2013-07-12T23:59:59Z"	"H"	"2013-01-05"	"2013-07-12"	189	NA	"2013-07-12"	"COMPLETED"	NA	"2013-01-05"	NA	NA	NA	"2013-07-12"	">=65"	"Y"	"White"	NA	NA	NA	NA	NA
"218"	"CDISCPILOT01"	"01-710-1443"	1443	NA	NA	NA	NA	NA	"2013-12-14"	NA	NA	710	88	"YEARS"	"F"	"WHITE"	"NOT HISPANIC OR LATINO"	"Scrnfail"	"Screen Failure"	"Scrnfail"	"Screen Failure"	"USA"	"2013-12-13"	NA	"Screen Failure"	"Screen Failure"	NA	NA	NA	NA	NA	NA	NA	"2013-12-13"	NA	NA	NA	NA	NA	NA	NA	NA	">=65"	NA	"White"	NA	NA	NA	NA	NA
"219"	"CDISCPILOT01"	"01-711-1012"	1012	"2013-04-03"	"2013-05-02"	"2013-04-03"	"2013-04-29"	NA	"2013-09-18"	NA	NA	711	67	"YEARS"	"F"	"WHITE"	"NOT HISPANIC OR LATINO"	"Xan_Hi"	"Xanomeline High Dose"	"Xan_Hi"	"Xanomeline High Dose"	"USA"	"2013-03-20"	-14	"Xanomeline High Dose"	"Xanomeline High Dose"	"2013-04-03T00:00:00Z"	"H"	"2013-04-29T23:59:59Z"	"H"	"2013-04-03"	"2013-04-29"	27	NA	"2013-05-02"	"DISCONTINUED"	"2013-09-18"	"2013-04-03"	NA	NA	NA	"2013-05-02"	">=65"	"Y"	"White"	NA	NA	NA	NA	NA
"220"	"CDISCPILOT01"	"01-711-1022"	1022	NA	NA	NA	NA	NA	"2014-03-17"	NA	NA	711	86	"YEARS"	"F"	"WHITE"	"NOT HISPANIC OR LATINO"	"Scrnfail"	"Screen Failure"	"Scrnfail"	"Screen Failure"	"USA"	"2014-03-17"	NA	"Screen Failure"	"Screen Failure"	NA	NA	NA	NA	NA	NA	NA	"2014-03-17"	NA	NA	NA	NA	NA	NA	NA	NA	">=65"	NA	"White"	NA	NA	NA	NA	NA
"221"	"CDISCPILOT01"	"01-711-1036"	1036	"2012-07-29"	"2013-02-10"	"2012-07-29"	"2013-02-10"	NA	"2013-02-10T10:25"	NA	NA	711	70	"YEARS"	"M"	"BLACK OR AFRICAN AMERICAN"	"NOT HISPANIC OR LATINO"	"Pbo"	"Placebo"	"Pbo"	"Placebo"	"USA"	"2012-07-20"	-9	"Placebo"	"Placebo"	"2012-07-29T00:00:00Z"	"H"	"2013-02-10T23:59:59Z"	"H"	"2012-07-29"	"2013-02-10"	197	NA	"2013-02-10"	"COMPLETED"	NA	"2012-07-29"	NA	NA	NA	"2013-02-10"	">=65"	"Y"	"Non-white"	NA	NA	NA	NA	NA
"222"	"CDISCPILOT01"	"01-711-1143"	1143	"2013-04-03"	"2013-06-01"	"2013-04-03"	"2013-05-30"	NA	"2013-09-22"	NA	NA	711	76	"YEARS"	"F"	"WHITE"	"NOT HISPANIC OR LATINO"	"Xan_Lo"	"Xanomeline Low Dose"	"Xan_Lo"	"Xanomeline Low Dose"	"USA"	"2013-03-30"	-4	"Xanomeline Low Dose"	"Xanomeline Low Dose"	"2013-04-03T00:00:00Z"	"H"	"2013-05-30T23:59:59Z"	"H"	"2013-04-03"	"2013-05-30"	58	NA	"2013-06-01"	"DISCONTINUED"	"2013-09-22"	"2013-04-03"	NA	NA	NA	"2013-06-01"	">=65"	"Y"	"White"	NA	NA	NA	NA	NA
"223"	"CDISCPILOT01"	"01-711-1163"	1163	NA	NA	NA	NA	NA	"2012-11-08"	NA	NA	711	74	"YEARS"	"F"	"BLACK OR AFRICAN AMERICAN"	"NOT HISPANIC OR LATINO"	"Scrnfail"	"Screen Failure"	"Scrnfail"	"Screen Failure"	"USA"	"2012-11-08"	NA	"Screen Failure"	"Screen Failure"	NA	NA	NA	NA	NA	NA	NA	"2012-11-08"	NA	NA	NA	NA	NA	NA	NA	NA	">=65"	NA	"Non-white"	NA	NA	NA	NA	NA
"224"	"CDISCPILOT01"	"01-711-1173"	1173	NA	NA	NA	NA	NA	"2012-10-04"	NA	NA	711	62	"YEARS"	"M"	"WHITE"	"NOT HISPANIC OR LATINO"	"Scrnfail"	"Screen Failure"	"Scrnfail"	"Screen Failure"	"USA"	"2012-10-04"	NA	"Screen Failure"	"Screen Failure"	NA	NA	NA	NA	NA	NA	NA	"2012-10-04"	NA	NA	NA	NA	NA	NA	NA	NA	"18-64"	NA	"White"	NA	NA	NA	NA	NA
"225"	"CDISCPILOT01"	"01-711-1226"	1226	NA	NA	NA	NA	NA	"2013-10-24"	NA	NA	711	74	"YEARS"	"F"	"WHITE"	"NOT HISPANIC OR LATINO"	"Scrnfail"	"Screen Failure"	"Scrnfail"	"Screen Failure"	"USA"	"2013-10-24"	NA	"Screen Failure"	"Screen Failure"	NA	NA	NA	NA	NA	NA	NA	"2013-10-24"	NA	NA	NA	NA	NA	NA	NA	NA	">=65"	NA	"White"	NA	NA	NA	NA	NA
"226"	"CDISCPILOT01"	"01-711-1251"	1251	NA	NA	NA	NA	NA	"2014-02-28"	NA	NA	711	82	"YEARS"	"M"	"WHITE"	"NOT HISPANIC OR LATINO"	"Scrnfail"	"Screen Failure"	"Scrnfail"	"Screen Failure"	"USA"	"2014-02-28"	NA	"Screen Failure"	"Screen Failure"	NA	NA	NA	NA	NA	NA	NA	"2014-02-28"	NA	NA	NA	NA	NA	NA	NA	NA	">=65"	NA	"White"	NA	NA	NA	NA	NA
"227"	"CDISCPILOT01"	"01-711-1283"	1283	NA	NA	NA	NA	NA	"2014-03-27"	NA	NA	711	75	"YEARS"	"F"	"BLACK OR AFRICAN AMERICAN"	"NOT HISPANIC OR LATINO"	"Scrnfail"	"Screen Failure"	"Scrnfail"	"Screen Failure"	"USA"	"2014-03-27"	NA	"Screen Failure"	"Screen Failure"	NA	NA	NA	NA	NA	NA	NA	"2014-03-27"	NA	NA	NA	NA	NA	NA	NA	NA	">=65"	NA	"Non-white"	NA	NA	NA	NA	NA
"228"	"CDISCPILOT01"	"01-711-1284"	1284	NA	NA	NA	NA	NA	"2013-08-05"	NA	NA	711	77	"YEARS"	"F"	"WHITE"	"NOT HISPANIC OR LATINO"	"Scrnfail"	"Screen Failure"	"Scrnfail"	"Screen Failure"	"USA"	"2013-08-05"	NA	"Screen Failure"	"Screen Failure"	NA	NA	NA	NA	NA	NA	NA	"2013-08-05"	NA	NA	NA	NA	NA	NA	NA	NA	">=65"	NA	"White"	NA	NA	NA	NA	NA
"229"	"CDISCPILOT01"	"01-711-1290"	1290	NA	NA	NA	NA	NA	"2013-12-20"	NA	NA	711	61	"YEARS"	"F"	"WHITE"	"NOT HISPANIC OR LATINO"	"Scrnfail"	"Screen Failure"	"Scrnfail"	"Screen Failure"	"USA"	"2013-12-20"	NA	"Screen Failure"	"Screen Failure"	NA	NA	NA	NA	NA	NA	NA	"2013-12-20"	NA	NA	NA	NA	NA	NA	NA	NA	"18-64"	NA	"White"	NA	NA	NA	NA	NA
"230"	"CDISCPILOT01"	"01-711-1433"	1433	"2013-01-27"	"2013-02-06"	"2013-01-27"	"2013-02-05"	NA	"2013-02-06T10:52"	NA	NA	711	84	"YEARS"	"F"	"WHITE"	"NOT HISPANIC OR LATINO"	"Xan_Hi"	"Xanomeline High Dose"	"Xan_Lo"	"Xanomeline Low Dose"	"USA"	"2013-01-23"	-4	"Xanomeline High Dose"	"Xanomeline Low Dose"	"2013-01-27T00:00:00Z"	"H"	"2013-02-05T23:59:59Z"	"H"	"2013-01-27"	"2013-02-05"	10	NA	"2013-02-06"	"DISCONTINUED"	NA	"2013-01-27"	NA	NA	NA	"2013-02-06"	">=65"	"Y"	"White"	NA	NA	NA	NA	NA
"231"	"CDISCPILOT01"	"01-713-1043"	1043	"2013-09-15"	"2014-03-24"	"2013-09-15"	"2014-03-24"	NA	"2014-03-24T14:30"	NA	NA	713	78	"YEARS"	"F"	"WHITE"	"NOT HISPANIC OR LATINO"	"Xan_Lo"	"Xanomeline Low Dose"	"Xan_Lo"	"Xanomeline Low Dose"	"USA"	"2013-08-17"	-29	"Xanomeline Low Dose"	"Xanomeline Low Dose"	"2013-09-15T00:00:00Z"	"H"	"2014-03-24T23:59:59Z"	"H"	"2013-09-15"	"2014-03-24"	191	NA	"2014-03-24"	"COMPLETED"	NA	"2013-09-15"	NA	NA	NA	"2014-03-24"	">=65"	"Y"	"White"	NA	NA	NA	NA	NA
"232"	"CDISCPILOT01"	"01-713-1073"	1073	"2014-03-30"	"2014-10-05"	"2014-03-30"	"2014-10-05"	NA	"2014-10-05T10:30"	NA	NA	713	74	"YEARS"	"F"	"BLACK OR AFRICAN AMERICAN"	"NOT HISPANIC OR LATINO"	"Xan_Lo"	"Xanomeline Low Dose"	"Xan_Lo"	"Xanomeline Low Dose"	"USA"	"2014-03-15"	-15	"Xanomeline Low Dose"	"Xanomeline Low Dose"	"2014-03-30T00:00:00Z"	"H"	"2014-10-05T23:59:59Z"	"H"	"2014-03-30"	"2014-10-05"	190	NA	"2014-10-05"	"COMPLETED"	NA	"2014-03-30"	NA	NA	NA	"2014-10-05"	">=65"	"Y"	"Non-white"	NA	NA	NA	NA	NA
"233"	"CDISCPILOT01"	"01-713-1106"	1106	"2012-10-31"	"2013-05-06"	"2012-10-31"	"2013-05-06"	NA	"2013-05-06T11:25"	NA	NA	713	74	"YEARS"	"M"	"WHITE"	"NOT HISPANIC OR LATINO"	"Xan_Hi"	"Xanomeline High Dose"	"Xan_Hi"	"Xanomeline High Dose"	"USA"	"2012-10-03"	-28	"Xanomeline High Dose"	"Xanomeline High Dose"	"2012-10-31T00:00:00Z"	"H"	"2013-05-06T23:59:59Z"	"H"	"2012-10-31"	"2013-05-06"	188	NA	"2013-05-06"	"COMPLETED"	NA	"2012-10-31"	NA	NA	NA	"2013-05-06"	">=65"	"Y"	"White"	NA	NA	NA	NA	NA
"234"	"CDISCPILOT01"	"01-713-1141"	1141	"2013-05-31"	"2013-08-06"	"2013-05-31"	"2013-07-01"	NA	"2013-08-06T12:00"	NA	NA	713	79	"YEARS"	"M"	"WHITE"	"NOT HISPANIC OR LATINO"	"Xan_Hi"	"Xanomeline High Dose"	"Xan_Hi"	"Xanomeline High Dose"	"USA"	"2013-05-23"	-8	"Xanomeline High Dose"	"Xanomeline High Dose"	"2013-05-31T00:00:00Z"	"H"	"2013-07-01T23:59:59Z"	"H"	"2013-05-31"	"2013-07-01"	32	NA	"2013-08-06"	"DISCONTINUED"	NA	"2013-05-31"	NA	NA	NA	"2013-08-06"	">=65"	"Y"	"White"	NA	NA	NA	NA	NA
"235"	"CDISCPILOT01"	"01-713-1179"	1179	"2013-08-09"	"2014-02-05"	"2013-08-09"	"2014-02-05"	NA	"2014-02-05T15:15"	NA	NA	713	64	"YEARS"	"F"	"WHITE"	"NOT HISPANIC OR LATINO"	"Pbo"	"Placebo"	"Pbo"	"Placebo"	"USA"	"2013-07-11"	-29	"Placebo"	"Placebo"	"2013-08-09T00:00:00Z"	"H"	"2014-02-05T23:59:59Z"	"H"	"2013-08-09"	"2014-02-05"	181	NA	"2014-02-05"	"COMPLETED"	NA	"2013-08-09"	NA	NA	NA	"2014-02-05"	"18-64"	"Y"	"White"	NA	NA	NA	NA	NA
"236"	"CDISCPILOT01"	"01-713-1209"	1209	"2013-05-27"	"2013-11-22"	"2013-05-27"	"2013-11-22"	NA	"2013-11-22T10:05"	NA	NA	713	77	"YEARS"	"F"	"WHITE"	"NOT HISPANIC OR LATINO"	"Xan_Hi"	"Xanomeline High Dose"	"Xan_Hi"	"Xanomeline High Dose"	"USA"	"2013-05-16"	-11	"Xanomeline High Dose"	"Xanomeline High Dose"	"2013-05-27T00:00:00Z"	"H"	"2013-11-22T23:59:59Z"	"H"	"2013-05-27"	"2013-11-22"	180	NA	"2013-11-22"	"COMPLETED"	NA	"2013-05-27"	NA	NA	NA	"2013-11-22"	">=65"	"Y"	"White"	NA	NA	NA	NA	NA
"237"	"CDISCPILOT01"	"01-713-1256"	1256	"2012-09-19"	"2013-03-25"	"2012-09-19"	"2013-03-25"	NA	"2013-03-25T10:30"	NA	NA	713	71	"YEARS"	"M"	"WHITE"	"NOT HISPANIC OR LATINO"	"Pbo"	"Placebo"	"Pbo"	"Placebo"	"USA"	"2012-09-10"	-9	"Placebo"	"Placebo"	"2012-09-19T00:00:00Z"	"H"	"2013-03-25T23:59:59Z"	"H"	"2012-09-19"	"2013-03-25"	188	NA	"2013-03-25"	"COMPLETED"	NA	"2012-09-19"	NA	NA	NA	"2013-03-25"	">=65"	"Y"	"White"	NA	NA	NA	NA	NA
"238"	"CDISCPILOT01"	"01-713-1269"	1269	"2014-01-27"	"2014-07-28"	"2014-01-27"	"2014-07-28"	NA	"2014-07-28T14:00"	NA	NA	713	73	"YEARS"	"M"	"WHITE"	"NOT HISPANIC OR LATINO"	"Pbo"	"Placebo"	"Pbo"	"Placebo"	"USA"	"2014-01-14"	-13	"Placebo"	"Placebo"	"2014-01-27T00:00:00Z"	"H"	"2014-07-28T23:59:59Z"	"H"	"2014-01-27"	"2014-07-28"	183	NA	"2014-07-28"	"COMPLETED"	NA	"2014-01-27"	NA	NA	NA	"2014-07-28"	">=65"	"Y"	"White"	NA	NA	NA	NA	NA
"239"	"CDISCPILOT01"	"01-713-1448"	1448	"2014-01-19"	"2014-05-17"	"2014-01-19"	"2014-05-16"	NA	"2014-07-27"	NA	NA	713	71	"YEARS"	"F"	"WHITE"	"NOT HISPANIC OR LATINO"	"Xan_Lo"	"Xanomeline Low Dose"	"Xan_Lo"	"Xanomeline Low Dose"	"USA"	"2014-01-05"	-14	"Xanomeline Low Dose"	"Xanomeline Low Dose"	"2014-01-19T00:00:00Z"	"H"	"2014-05-16T23:59:59Z"	"H"	"2014-01-19"	"2014-05-16"	118	NA	"2014-05-17"	"DISCONTINUED"	"2014-07-27"	"2014-01-19"	NA	NA	NA	"2014-05-23"	">=65"	"Y"	"White"	NA	NA	NA	NA	NA
"240"	"CDISCPILOT01"	"01-714-1035"	1035	"2014-04-17"	"2014-10-16"	"2014-04-17"	"2014-10-16"	NA	"2014-10-16T12:00"	NA	NA	714	88	"YEARS"	"F"	"WHITE"	"NOT HISPANIC OR LATINO"	"Pbo"	"Placebo"	"Pbo"	"Placebo"	"USA"	"2014-04-03"	-14	"Placebo"	"Placebo"	"2014-04-17T00:00:00Z"	"H"	"2014-10-16T23:59:59Z"	"H"	"2014-04-17"	"2014-10-16"	183	NA	"2014-10-16"	"COMPLETED"	NA	"2014-04-17"	NA	NA	NA	"2014-10-16"	">=65"	"Y"	"White"	NA	NA	NA	NA	NA
"241"	"CDISCPILOT01"	"01-714-1068"	1068	"2013-08-08"	"2013-10-16"	"2013-08-08"	"2013-10-08"	NA	"2013-10-23"	NA	NA	714	79	"YEARS"	"F"	"WHITE"	"NOT HISPANIC OR LATINO"	"Xan_Lo"	"Xanomeline Low Dose"	"Xan_Lo"	"Xanomeline Low Dose"	"USA"	"2013-07-31"	-8	"Xanomeline Low Dose"	"Xanomeline Low Dose"	"2013-08-08T00:00:00Z"	"H"	"2013-10-08T23:59:59Z"	"H"	"2013-08-08"	"2013-10-08"	62	NA	"2013-10-16"	"DISCONTINUED"	NA	"2013-08-08"	NA	NA	NA	"2013-10-16"	">=65"	"Y"	"White"	NA	NA	NA	NA	NA
"242"	"CDISCPILOT01"	"01-714-1195"	1195	"2013-04-26"	"2013-10-23"	"2013-04-26"	"2013-10-23"	NA	"2013-10-23T10:55"	NA	NA	714	75	"YEARS"	"M"	"WHITE"	"NOT HISPANIC OR LATINO"	"Xan_Lo"	"Xanomeline Low Dose"	"Xan_Lo"	"Xanomeline Low Dose"	"USA"	"2013-04-16"	-10	"Xanomeline Low Dose"	"Xanomeline Low Dose"	"2013-04-26T00:00:00Z"	"H"	"2013-10-23T23:59:59Z"	"H"	"2013-04-26"	"2013-10-23"	181	NA	"2013-10-23"	"COMPLETED"	NA	"2013-04-26"	NA	NA	NA	"2013-10-23"	">=65"	"Y"	"White"	NA	NA	NA	NA	NA
"243"	"CDISCPILOT01"	"01-714-1288"	1288	"2013-12-04"	"2014-06-17"	"2013-12-04"	"2014-06-17"	NA	"2014-06-17T13:00"	NA	NA	714	77	"YEARS"	"M"	"BLACK OR AFRICAN AMERICAN"	"NOT HISPANIC OR LATINO"	"Xan_Hi"	"Xanomeline High Dose"	"Xan_Hi"	"Xanomeline High Dose"	"USA"	"2013-11-24"	-10	"Xanomeline High Dose"	"Xanomeline High Dose"	"2013-12-04T00:00:00Z"	"H"	"2014-06-17T23:59:59Z"	"H"	"2013-12-04"	"2014-06-17"	196	NA	"2014-06-17"	"COMPLETED"	NA	"2013-12-04"	NA	NA	NA	"2014-06-17"	">=65"	"Y"	"Non-white"	NA	NA	NA	NA	NA
"244"	"CDISCPILOT01"	"01-714-1375"	1375	"2013-02-26"	"2013-09-07"	"2013-02-26"	"2013-09-07"	NA	"2013-09-07T13:58"	NA	NA	714	78	"YEARS"	"F"	"WHITE"	"NOT HISPANIC OR LATINO"	"Pbo"	"Placebo"	"Pbo"	"Placebo"	"USA"	"2013-02-23"	-3	"Placebo"	"Placebo"	"2013-02-26T00:00:00Z"	"H"	"2013-09-07T23:59:59Z"	"H"	"2013-02-26"	"2013-09-07"	194	NA	"2013-09-07"	"COMPLETED"	NA	"2013-02-26"	NA	NA	NA	"2013-09-07"	">=65"	"Y"	"White"	NA	NA	NA	NA	NA
"245"	"CDISCPILOT01"	"01-714-1425"	1425	"2013-08-15"	"2013-08-22"	"2013-08-15"	"2013-08-19"	NA	"2013-08-22T14:55"	NA	NA	714	81	"YEARS"	"M"	"WHITE"	"NOT HISPANIC OR LATINO"	"Xan_Hi"	"Xanomeline High Dose"	"Xan_Lo"	"Xanomeline Low Dose"	"USA"	"2013-08-11"	-4	"Xanomeline High Dose"	"Xanomeline Low Dose"	"2013-08-15T00:00:00Z"	"H"	"2013-08-19T23:59:59Z"	"H"	"2013-08-15"	"2013-08-19"	5	NA	"2013-08-22"	"DISCONTINUED"	NA	"2013-08-15"	NA	NA	NA	"2013-08-22"	">=65"	"Y"	"White"	NA	NA	NA	NA	NA
"246"	"CDISCPILOT01"	"01-715-1085"	1085	"2013-02-16"	"2013-08-18"	"2013-02-16"	"2013-08-18"	NA	"2013-08-18T10:22"	NA	NA	715	77	"YEARS"	"F"	"WHITE"	"NOT HISPANIC OR LATINO"	"Xan_Lo"	"Xanomeline Low Dose"	"Xan_Lo"	"Xanomeline Low Dose"	"USA"	"2013-02-03"	-13	"Xanomeline Low Dose"	"Xanomeline Low Dose"	"2013-02-16T00:00:00Z"	"H"	"2013-08-18T23:59:59Z"	"H"	"2013-02-16"	"2013-08-18"	184	NA	"2013-08-18"	"COMPLETED"	NA	"2013-02-16"	NA	NA	NA	"2013-08-18"	">=65"	"Y"	"White"	NA	NA	NA	NA	NA
"247"	"CDISCPILOT01"	"01-715-1107"	1107	"2013-02-26"	"2013-05-13"	"2013-02-26"	"2013-05-07"	NA	"2013-08-14T09:52"	NA	NA	715	65	"YEARS"	"M"	"WHITE"	"NOT HISPANIC OR LATINO"	"Xan_Lo"	"Xanomeline Low Dose"	"Xan_Lo"	"Xanomeline Low Dose"	"USA"	"2013-02-12"	-14	"Xanomeline Low Dose"	"Xanomeline Low Dose"	"2013-02-26T00:00:00Z"	"H"	"2013-05-07T23:59:59Z"	"H"	"2013-02-26"	"2013-05-07"	71	NA	"2013-05-13"	"DISCONTINUED"	"2013-08-14"	"2013-02-26"	NA	NA	NA	"2013-08-14"	">=65"	"Y"	"White"	NA	NA	NA	NA	NA
"248"	"CDISCPILOT01"	"01-715-1134"	1134	NA	NA	NA	NA	NA	"2014-05-21"	NA	NA	715	50	"YEARS"	"F"	"WHITE"	"NOT HISPANIC OR LATINO"	"Scrnfail"	"Screen Failure"	"Scrnfail"	"Screen Failure"	"USA"	"2014-04-17"	NA	"Screen Failure"	"Screen Failure"	NA	NA	NA	NA	NA	NA	NA	"2014-04-17"	NA	NA	NA	NA	NA	NA	NA	NA	"18-64"	NA	"White"	NA	NA	NA	NA	NA
"249"	"CDISCPILOT01"	"01-715-1155"	1155	"2013-12-13"	"2014-04-26"	"2013-12-13"	"2014-01-25"	NA	"2014-04-26"	NA	NA	715	59	"YEARS"	"F"	"WHITE"	"NOT HISPANIC OR LATINO"	"Pbo"	"Placebo"	"Pbo"	"Placebo"	"USA"	"2013-11-29"	-14	"Placebo"	"Placebo"	"2013-12-13T00:00:00Z"	"H"	"2014-01-25T23:59:59Z"	"H"	"2013-12-13"	"2014-01-25"	44	NA	"2014-04-26"	"DISCONTINUED"	NA	"2013-12-13"	NA	NA	NA	"2014-01-25"	"18-64"	"Y"	"White"	NA	NA	NA	NA	NA
"250"	"CDISCPILOT01"	"01-715-1207"	1207	"2012-11-18"	"2013-06-01"	"2012-11-18"	"2013-05-27"	NA	"2013-06-01T09:30"	NA	NA	715	78	"YEARS"	"F"	"WHITE"	"NOT HISPANIC OR LATINO"	"Pbo"	"Placebo"	"Pbo"	"Placebo"	"USA"	"2012-11-12"	-6	"Placebo"	"Placebo"	"2012-11-18T00:00:00Z"	"H"	"2013-05-27T23:59:59Z"	"H"	"2012-11-18"	"2013-05-27"	191	NA	"2013-06-01"	"COMPLETED"	NA	"2012-11-18"	NA	NA	NA	"2013-06-01"	">=65"	"Y"	"White"	NA	NA	NA	NA	NA
"251"	"CDISCPILOT01"	"01-715-1225"	1225	NA	NA	NA	NA	NA	"2013-05-07"	NA	NA	715	77	"YEARS"	"F"	"WHITE"	"NOT HISPANIC OR LATINO"	"Scrnfail"	"Screen Failure"	"Scrnfail"	"Screen Failure"	"USA"	"2013-01-22"	NA	"Screen Failure"	"Screen Failure"	NA	NA	NA	NA	NA	NA	NA	"2013-01-22"	NA	NA	NA	NA	NA	NA	NA	NA	">=65"	NA	"White"	NA	NA	NA	NA	NA
"252"	"CDISCPILOT01"	"01-715-1319"	1319	"2013-02-17"	"2013-03-18"	"2013-02-17"	"2013-03-05"	NA	"2013-03-18T10:28"	NA	NA	715	65	"YEARS"	"M"	"WHITE"	"NOT HISPANIC OR LATINO"	"Xan_Hi"	"Xanomeline High Dose"	"Xan_Hi"	"Xanomeline High Dose"	"USA"	"2013-02-03"	-14	"Xanomeline High Dose"	"Xanomeline High Dose"	"2013-02-17T00:00:00Z"	"H"	"2013-03-05T23:59:59Z"	"H"	"2013-02-17"	"2013-03-05"	17	NA	"2013-03-18"	"DISCONTINUED"	NA	"2013-02-17"	NA	NA	NA	"2013-03-18"	">=65"	"Y"	"White"	NA	NA	NA	NA	NA
"253"	"CDISCPILOT01"	"01-715-1321"	1321	"2014-02-11"	"2014-04-22"	"2014-02-11"	"2014-04-21"	NA	"2014-04-22T11:12"	NA	NA	715	75	"YEARS"	"F"	"WHITE"	"NOT HISPANIC OR LATINO"	"Xan_Hi"	"Xanomeline High Dose"	"Xan_Hi"	"Xanomeline High Dose"	"USA"	"2014-02-06"	-5	"Xanomeline High Dose"	"Xanomeline High Dose"	"2014-02-11T00:00:00Z"	"H"	"2014-04-21T23:59:59Z"	"H"	"2014-02-11"	"2014-04-21"	70	NA	"2014-04-22"	"DISCONTINUED"	NA	"2014-02-11"	NA	NA	NA	"2014-04-22"	">=65"	"Y"	"White"	NA	NA	NA	NA	NA
"254"	"CDISCPILOT01"	"01-715-1333"	1333	NA	NA	NA	NA	NA	"2013-11-03"	NA	NA	715	75	"YEARS"	"F"	"WHITE"	"NOT HISPANIC OR LATINO"	"Scrnfail"	"Screen Failure"	"Scrnfail"	"Screen Failure"	"USA"	"2013-06-03"	NA	"Screen Failure"	"Screen Failure"	NA	NA	NA	NA	NA	NA	NA	"2013-06-03"	NA	NA	NA	NA	NA	NA	NA	NA	">=65"	NA	"White"	NA	NA	NA	NA	NA
"255"	"CDISCPILOT01"	"01-715-1397"	1397	"2013-04-03"	"2013-10-03"	"2013-04-03"	"2013-10-02"	NA	"2013-10-03T10:50"	NA	NA	715	76	"YEARS"	"F"	"WHITE"	"NOT HISPANIC OR LATINO"	"Pbo"	"Placebo"	"Pbo"	"Placebo"	"USA"	"2013-03-20"	-14	"Placebo"	"Placebo"	"2013-04-03T00:00:00Z"	"H"	"2013-10-02T23:59:59Z"	"H"	"2013-04-03"	"2013-10-02"	183	NA	"2013-10-03"	"COMPLETED"	NA	"2013-04-03"	NA	NA	NA	"2013-10-03"	">=65"	"Y"	"White"	NA	NA	NA	NA	NA
"256"	"CDISCPILOT01"	"01-715-1405"	1405	"2013-07-06"	"2013-07-13"	"2013-07-06"	"2013-07-07"	NA	"2014-01-11"	NA	NA	715	69	"YEARS"	"M"	"WHITE"	"NOT HISPANIC OR LATINO"	"Xan_Lo"	"Xanomeline Low Dose"	"Xan_Lo"	"Xanomeline Low Dose"	"USA"	"2013-06-27"	-9	"Xanomeline Low Dose"	"Xanomeline Low Dose"	"2013-07-06T00:00:00Z"	"H"	"2013-07-07T23:59:59Z"	"H"	"2013-07-06"	"2013-07-07"	2	NA	"2013-07-13"	"DISCONTINUED"	"2014-01-11"	"2013-07-06"	NA	NA	NA	"2013-07-13"	">=65"	"Y"	"White"	NA	NA	NA	NA	NA
"257"	"CDISCPILOT01"	"01-715-1407"	1407	NA	NA	NA	NA	NA	"2013-02-07"	NA	NA	715	73	"YEARS"	"F"	"WHITE"	"NOT HISPANIC OR LATINO"	"Scrnfail"	"Screen Failure"	"Scrnfail"	"Screen Failure"	"USA"	"2012-10-24"	NA	"Screen Failure"	"Screen Failure"	NA	NA	NA	NA	NA	NA	NA	"2012-10-24"	NA	NA	NA	NA	NA	NA	NA	NA	">=65"	NA	"White"	NA	NA	NA	NA	NA
"258"	"CDISCPILOT01"	"01-716-1003"	1003	NA	NA	NA	NA	NA	"2014-03-29"	NA	NA	716	79	"YEARS"	"M"	"WHITE"	"HISPANIC OR LATINO"	"Scrnfail"	"Screen Failure"	"Scrnfail"	"Screen Failure"	"USA"	"2014-03-29"	NA	"Screen Failure"	"Screen Failure"	NA	NA	NA	NA	NA	NA	NA	"2014-03-29"	NA	NA	NA	NA	NA	NA	NA	NA	">=65"	NA	"White"	NA	NA	NA	NA	NA
"259"	"CDISCPILOT01"	"01-716-1024"	1024	"2012-07-09"	"2013-01-20"	"2012-07-09"	"2013-01-20"	NA	"2013-01-20T11:10"	NA	NA	716	87	"YEARS"	"F"	"WHITE"	"NOT HISPANIC OR LATINO"	"Pbo"	"Placebo"	"Pbo"	"Placebo"	"USA"	"2012-07-06"	-3	"Placebo"	"Placebo"	"2012-07-09T00:00:00Z"	"H"	"2013-01-20T23:59:59Z"	"H"	"2012-07-09"	"2013-01-20"	196	NA	"2013-01-20"	"COMPLETED"	NA	"2012-07-09"	NA	NA	NA	"2013-01-20"	">=65"	"Y"	"White"	NA	NA	NA	NA	NA
"260"	"CDISCPILOT01"	"01-716-1026"	1026	"2014-04-02"	"2014-10-16"	"2014-04-02"	"2014-10-16"	NA	"2014-10-16T13:35"	NA	NA	716	73	"YEARS"	"F"	"WHITE"	"NOT HISPANIC OR LATINO"	"Pbo"	"Placebo"	"Pbo"	"Placebo"	"USA"	"2014-03-23"	-10	"Placebo"	"Placebo"	"2014-04-02T00:00:00Z"	"H"	"2014-10-16T23:59:59Z"	"H"	"2014-04-02"	"2014-10-16"	198	NA	"2014-10-16"	"COMPLETED"	NA	"2014-04-02"	NA	NA	NA	"2014-10-16"	">=65"	"Y"	"White"	NA	NA	NA	NA	NA
"261"	"CDISCPILOT01"	"01-716-1030"	1030	"2013-12-28"	"2014-01-10"	"2013-12-28"	"2014-01-02"	NA	"2014-01-10T12:30"	NA	NA	716	83	"YEARS"	"F"	"WHITE"	"NOT HISPANIC OR LATINO"	"Xan_Hi"	"Xanomeline High Dose"	"Xan_Lo"	"Xanomeline Low Dose"	"USA"	"2013-12-25"	-3	"Xanomeline High Dose"	"Xanomeline Low Dose"	"2013-12-28T00:00:00Z"	"H"	"2014-01-02T23:59:59Z"	"H"	"2013-12-28"	"2014-01-02"	6	NA	"2014-01-10"	"DISCONTINUED"	NA	"2013-12-28"	NA	NA	NA	"2014-01-10"	">=65"	"Y"	"White"	NA	NA	NA	NA	NA
"262"	"CDISCPILOT01"	"01-716-1044"	1044	"2013-04-27"	"2013-11-03"	"2013-04-27"	"2013-11-03"	NA	"2013-11-03T13:10"	NA	NA	716	74	"YEARS"	"M"	"WHITE"	"NOT HISPANIC OR LATINO"	"Pbo"	"Placebo"	"Pbo"	"Placebo"	"USA"	"2013-04-20"	-7	"Placebo"	"Placebo"	"2013-04-27T00:00:00Z"	"H"	"2013-11-03T23:59:59Z"	"H"	"2013-04-27"	"2013-11-03"	191	NA	"2013-11-03"	"COMPLETED"	NA	"2013-04-27"	NA	NA	NA	"2013-11-03"	">=65"	"Y"	"White"	NA	NA	NA	NA	NA
"263"	"CDISCPILOT01"	"01-716-1061"	1061	NA	NA	NA	NA	NA	"2014-02-14"	NA	NA	716	81	"YEARS"	"M"	"WHITE"	"NOT HISPANIC OR LATINO"	"Scrnfail"	"Screen Failure"	"Scrnfail"	"Screen Failure"	"USA"	"2014-02-14"	NA	"Screen Failure"	"Screen Failure"	NA	NA	NA	NA	NA	NA	NA	"2014-02-14"	NA	NA	NA	NA	NA	NA	NA	NA	">=65"	NA	"White"	NA	NA	NA	NA	NA
"264"	"CDISCPILOT01"	"01-716-1063"	1063	"2013-05-09"	"2013-08-28"	"2013-05-09"	"2013-08-25"	NA	"2013-11-17"	NA	NA	716	80	"YEARS"	"M"	"WHITE"	"NOT HISPANIC OR LATINO"	"Xan_Lo"	"Xanomeline Low Dose"	"Xan_Lo"	"Xanomeline Low Dose"	"USA"	"2013-05-06"	-3	"Xanomeline Low Dose"	"Xanomeline Low Dose"	"2013-05-09T00:00:00Z"	"H"	"2013-08-25T23:59:59Z"	"H"	"2013-05-09"	"2013-08-25"	109	NA	"2013-08-28"	"DISCONTINUED"	"2013-11-17"	"2013-05-09"	NA	NA	NA	"2013-08-28"	">=65"	"Y"	"White"	NA	NA	NA	NA	NA
"265"	"CDISCPILOT01"	"01-716-1071"	1071	"2013-06-08"	"2013-08-01"	"2013-06-08"	"2013-08-01"	NA	"2013-12-16"	NA	NA	716	78	"YEARS"	"F"	"WHITE"	"NOT HISPANIC OR LATINO"	"Xan_Hi"	"Xanomeline High Dose"	"Xan_Hi"	"Xanomeline High Dose"	"USA"	"2013-06-03"	-5	"Xanomeline High Dose"	"Xanomeline High Dose"	"2013-06-08T00:00:00Z"	"H"	"2013-08-01T23:59:59Z"	"H"	"2013-06-08"	"2013-08-01"	55	NA	"2013-08-01"	"DISCONTINUED"	"2013-12-16"	"2013-06-08"	NA	NA	NA	"2013-08-01"	">=65"	"Y"	"White"	NA	NA	NA	NA	NA
"266"	"CDISCPILOT01"	"01-716-1094"	1094	"2012-12-19"	"2013-01-26"	"2012-12-19"	"2013-01-24"	NA	"2013-06-22"	NA	NA	716	82	"YEARS"	"M"	"WHITE"	"NOT HISPANIC OR LATINO"	"Xan_Lo"	"Xanomeline Low Dose"	"Xan_Lo"	"Xanomeline Low Dose"	"USA"	"2012-12-16"	-3	"Xanomeline Low Dose"	"Xanomeline Low Dose"	"2012-12-19T00:00:00Z"	"H"	"2013-01-24T23:59:59Z"	"H"	"2012-12-19"	"2013-01-24"	37	NA	"2013-01-26"	"DISCONTINUED"	"2013-06-22"	"2012-12-19"	NA	NA	NA	"2013-01-26"	">=65"	"Y"	"White"	NA	NA	NA	NA	NA
"267"	"CDISCPILOT01"	"01-716-1103"	1103	"2014-03-20"	"2014-09-20"	"2014-03-20"	"2014-09-20"	NA	"2014-09-20T12:10"	NA	NA	716	79	"YEARS"	"M"	"WHITE"	"NOT HISPANIC OR LATINO"	"Xan_Lo"	"Xanomeline Low Dose"	"Xan_Lo"	"Xanomeline Low Dose"	"USA"	"2014-03-18"	-2	"Xanomeline Low Dose"	"Xanomeline Low Dose"	"2014-03-20T00:00:00Z"	"H"	"2014-09-20T23:59:59Z"	"H"	"2014-03-20"	"2014-09-20"	185	NA	"2014-09-20"	"COMPLETED"	NA	"2014-03-20"	NA	NA	NA	"2014-09-20"	">=65"	"Y"	"White"	NA	NA	NA	NA	NA
"268"	"CDISCPILOT01"	"01-716-1108"	1108	"2013-02-12"	"2013-08-10"	"2013-02-12"	"2013-08-10"	NA	"2013-08-10T09:55"	NA	NA	716	86	"YEARS"	"F"	"WHITE"	"NOT HISPANIC OR LATINO"	"Pbo"	"Placebo"	"Pbo"	"Placebo"	"USA"	"2013-02-04"	-8	"Placebo"	"Placebo"	"2013-02-12T00:00:00Z"	"H"	"2013-08-10T23:59:59Z"	"H"	"2013-02-12"	"2013-08-10"	180	NA	"2013-08-10"	"COMPLETED"	NA	"2013-02-12"	NA	NA	NA	"2013-08-10"	">=65"	"Y"	"White"	NA	NA	NA	NA	NA
"269"	"CDISCPILOT01"	"01-716-1151"	1151	"2013-02-01"	"2013-06-07"	"2013-02-01"	"2013-05-11"	NA	"2013-08-13"	NA	NA	716	83	"YEARS"	"F"	"WHITE"	"NOT HISPANIC OR LATINO"	"Xan_Lo"	"Xanomeline Low Dose"	"Xan_Lo"	"Xanomeline Low Dose"	"USA"	"2013-01-23"	-9	"Xanomeline Low Dose"	"Xanomeline Low Dose"	"2013-02-01T00:00:00Z"	"H"	"2013-05-11T23:59:59Z"	"H"	"2013-02-01"	"2013-05-11"	100	NA	"2013-06-07"	"DISCONTINUED"	"2013-08-13"	"2013-02-01"	NA	NA	NA	"2013-06-07"	">=65"	"Y"	"White"	NA	NA	NA	NA	NA
"270"	"CDISCPILOT01"	"01-716-1157"	1157	"2013-10-02"	"2014-04-05"	"2013-10-02"	"2014-04-04"	NA	"2014-04-05T11:10"	NA	NA	716	85	"YEARS"	"M"	"WHITE"	"NOT HISPANIC OR LATINO"	"Xan_Lo"	"Xanomeline Low Dose"	"Xan_Lo"	"Xanomeline Low Dose"	"USA"	"2013-09-23"	-9	"Xanomeline Low Dose"	"Xanomeline Low Dose"	"2013-10-02T00:00:00Z"	"H"	"2014-04-04T23:59:59Z"	"H"	"2013-10-02"	"2014-04-04"	185	NA	"2014-04-05"	"COMPLETED"	NA	"2013-10-02"	NA	NA	NA	"2014-04-05"	">=65"	"Y"	"White"	NA	NA	NA	NA	NA
"271"	"CDISCPILOT01"	"01-716-1160"	1160	"2013-04-05"	"2013-10-11"	"2013-04-05"	"2013-10-11"	NA	"2013-10-11T13:30"	NA	NA	716	83	"YEARS"	"F"	"WHITE"	"NOT HISPANIC OR LATINO"	"Pbo"	"Placebo"	"Pbo"	"Placebo"	"USA"	"2013-03-23"	-13	"Placebo"	"Placebo"	"2013-04-05T00:00:00Z"	"H"	"2013-10-11T23:59:59Z"	"H"	"2013-04-05"	"2013-10-11"	190	NA	"2013-10-11"	"COMPLETED"	NA	"2013-04-05"	NA	NA	NA	"2013-10-11"	">=65"	"Y"	"White"	NA	NA	NA	NA	NA
"272"	"CDISCPILOT01"	"01-716-1167"	1167	"2012-10-08"	"2013-04-13"	"2012-10-08"	"2013-04-12"	NA	"2013-04-13T11:10"	NA	NA	716	68	"YEARS"	"M"	"WHITE"	"NOT HISPANIC OR LATINO"	"Xan_Lo"	"Xanomeline Low Dose"	"Xan_Lo"	"Xanomeline Low Dose"	"USA"	"2012-09-30"	-8	"Xanomeline Low Dose"	"Xanomeline Low Dose"	"2012-10-08T00:00:00Z"	"H"	"2013-04-12T23:59:59Z"	"H"	"2012-10-08"	"2013-04-12"	187	NA	"2013-04-13"	"COMPLETED"	NA	"2012-10-08"	NA	NA	NA	"2013-04-13"	">=65"	"Y"	"White"	NA	NA	NA	NA	NA
"273"	"CDISCPILOT01"	"01-716-1177"	1177	"2014-09-02"	"2015-03-05"	"2014-09-02"	"2015-03-05"	NA	"2015-03-05T14:40"	NA	NA	716	72	"YEARS"	"M"	"WHITE"	"NOT HISPANIC OR LATINO"	"Pbo"	"Placebo"	"Pbo"	"Placebo"	"USA"	"2014-08-29"	-4	"Placebo"	"Placebo"	"2014-09-02T00:00:00Z"	"H"	"2015-03-05T23:59:59Z"	"H"	"2014-09-02"	"2015-03-05"	185	NA	"2015-03-05"	"COMPLETED"	NA	"2014-09-02"	NA	NA	NA	"2015-03-05"	">=65"	"Y"	"White"	NA	NA	NA	NA	NA
"274"	"CDISCPILOT01"	"01-716-1189"	1189	"2012-10-09"	"2013-03-03"	"2012-10-09"	"2013-02-27"	NA	"2013-04-08"	NA	NA	716	81	"YEARS"	"M"	"WHITE"	"NOT HISPANIC OR LATINO"	"Xan_Hi"	"Xanomeline High Dose"	"Xan_Hi"	"Xanomeline High Dose"	"USA"	"2012-10-07"	-2	"Xanomeline High Dose"	"Xanomeline High Dose"	"2012-10-09T00:00:00Z"	"H"	"2013-02-27T23:59:59Z"	"H"	"2012-10-09"	"2013-02-27"	142	NA	"2013-03-03"	"DISCONTINUED"	"2013-04-08"	"2012-10-09"	NA	NA	NA	"2013-03-03"	">=65"	"Y"	"White"	NA	NA	NA	NA	NA
"275"	"CDISCPILOT01"	"01-716-1229"	1229	"2013-02-20"	"2013-04-02"	"2013-02-20"	"2013-03-31"	NA	"2013-04-02T11:15"	NA	NA	716	73	"YEARS"	"F"	"WHITE"	"NOT HISPANIC OR LATINO"	"Xan_Hi"	"Xanomeline High Dose"	"Xan_Hi"	"Xanomeline High Dose"	"USA"	"2013-02-14"	-6	"Xanomeline High Dose"	"Xanomeline High Dose"	"2013-02-20T00:00:00Z"	"H"	"2013-03-31T23:59:59Z"	"H"	"2013-02-20"	"2013-03-31"	40	NA	"2013-04-02"	"DISCONTINUED"	NA	"2013-02-20"	NA	NA	NA	"2013-04-02"	">=65"	"Y"	"White"	NA	NA	NA	NA	NA
"276"	"CDISCPILOT01"	"01-716-1244"	1244	NA	NA	NA	NA	NA	"2013-09-03"	NA	NA	716	72	"YEARS"	"F"	"WHITE"	"NOT HISPANIC OR LATINO"	"Scrnfail"	"Screen Failure"	"Scrnfail"	"Screen Failure"	"USA"	"2013-08-15"	NA	"Screen Failure"	"Screen Failure"	NA	NA	NA	NA	NA	NA	NA	"2013-08-15"	NA	NA	NA	NA	NA	NA	NA	NA	">=65"	NA	"White"	NA	NA	NA	NA	NA
"277"	"CDISCPILOT01"	"01-716-1298"	1298	"2013-04-08"	"2013-07-06"	"2013-04-08"	"2013-06-28"	NA	"2013-10-07"	NA	NA	716	76	"YEARS"	"F"	"WHITE"	"NOT HISPANIC OR LATINO"	"Xan_Lo"	"Xanomeline Low Dose"	"Xan_Lo"	"Xanomeline Low Dose"	"USA"	"2013-04-04"	-4	"Xanomeline Low Dose"	"Xanomeline Low Dose"	"2013-04-08T00:00:00Z"	"H"	"2013-06-28T23:59:59Z"	"H"	"2013-04-08"	"2013-06-28"	82	NA	"2013-07-06"	"DISCONTINUED"	"2013-10-07"	"2013-04-08"	NA	NA	NA	"2013-07-06"	">=65"	"Y"	"White"	NA	NA	NA	NA	NA
"278"	"CDISCPILOT01"	"01-716-1305"	1305	NA	NA	NA	NA	NA	"2013-08-28"	NA	NA	716	73	"YEARS"	"F"	"WHITE"	"NOT HISPANIC OR LATINO"	"Scrnfail"	"Screen Failure"	"Scrnfail"	"Screen Failure"	"USA"	"2013-08-06"	NA	"Screen Failure"	"Screen Failure"	NA	NA	NA	NA	NA	NA	NA	"2013-08-06"	NA	NA	NA	NA	NA	NA	NA	NA	">=65"	NA	"White"	NA	NA	NA	NA	NA
"279"	"CDISCPILOT01"	"01-716-1308"	1308	"2013-08-28"	"2013-10-07"	"2013-08-28"	"2013-10-07"	NA	"2013-10-07T15:50"	NA	NA	716	76	"YEARS"	"F"	"WHITE"	"NOT HISPANIC OR LATINO"	"Pbo"	"Placebo"	"Pbo"	"Placebo"	"USA"	"2013-08-23"	-5	"Placebo"	"Placebo"	"2013-08-28T00:00:00Z"	"H"	"2013-10-07T23:59:59Z"	"H"	"2013-08-28"	"2013-10-07"	41	NA	"2013-10-07"	"DISCONTINUED"	NA	"2013-08-28"	NA	NA	NA	"2013-10-07"	">=65"	"Y"	"White"	NA	NA	NA	NA	NA
"280"	"CDISCPILOT01"	"01-716-1311"	1311	"2014-05-14"	"2014-09-30"	"2014-05-14"	"2014-09-21"	NA	"2014-11-15"	NA	NA	716	78	"YEARS"	"M"	"WHITE"	"NOT HISPANIC OR LATINO"	"Xan_Lo"	"Xanomeline Low Dose"	"Xan_Lo"	"Xanomeline Low Dose"	"USA"	"2014-05-08"	-6	"Xanomeline Low Dose"	"Xanomeline Low Dose"	"2014-05-14T00:00:00Z"	"H"	"2014-09-21T23:59:59Z"	"H"	"2014-05-14"	"2014-09-21"	131	NA	"2014-09-30"	"DISCONTINUED"	"2014-11-15"	"2014-05-14"	NA	NA	NA	"2014-09-30"	">=65"	"Y"	"White"	NA	NA	NA	NA	NA
"281"	"CDISCPILOT01"	"01-716-1331"	1331	NA	NA	NA	NA	NA	"2013-11-25"	NA	NA	716	59	"YEARS"	"F"	"WHITE"	"NOT HISPANIC OR LATINO"	"Scrnfail"	"Screen Failure"	"Scrnfail"	"Screen Failure"	"USA"	"2013-11-25"	NA	"Screen Failure"	"Screen Failure"	NA	NA	NA	NA	NA	NA	NA	"2013-11-25"	NA	NA	NA	NA	NA	NA	NA	NA	"18-64"	NA	"White"	NA	NA	NA	NA	NA
"282"	"CDISCPILOT01"	"01-716-1364"	1364	"2013-07-04"	"2014-01-09"	"2013-07-04"	"2014-01-09"	NA	"2014-01-09T15:30"	NA	NA	716	84	"YEARS"	"F"	"WHITE"	"NOT HISPANIC OR LATINO"	"Xan_Hi"	"Xanomeline High Dose"	"Xan_Hi"	"Xanomeline High Dose"	"USA"	"2013-06-27"	-7	"Xanomeline High Dose"	"Xanomeline High Dose"	"2013-07-04T00:00:00Z"	"H"	"2014-01-09T23:59:59Z"	"H"	"2013-07-04"	"2014-01-09"	190	NA	"2014-01-09"	"COMPLETED"	NA	"2013-07-04"	NA	NA	NA	"2014-01-09"	">=65"	"Y"	"White"	NA	NA	NA	NA	NA
"283"	"CDISCPILOT01"	"01-716-1373"	1373	"2012-12-14"	"2013-02-28"	"2012-12-14"	"2013-02-27"	NA	"2013-02-28T10:23"	NA	NA	716	74	"YEARS"	"M"	"WHITE"	"NOT HISPANIC OR LATINO"	"Xan_Hi"	"Xanomeline High Dose"	"Xan_Hi"	"Xanomeline High Dose"	"USA"	"2012-11-24"	-20	"Xanomeline High Dose"	"Xanomeline High Dose"	"2012-12-14T00:00:00Z"	"H"	"2013-02-27T23:59:59Z"	"H"	"2012-12-14"	"2013-02-27"	76	NA	"2013-02-28"	"DISCONTINUED"	NA	"2012-12-14"	NA	NA	NA	"2013-02-28"	">=65"	"Y"	"White"	NA	NA	NA	NA	NA
"284"	"CDISCPILOT01"	"01-716-1418"	1418	"2013-05-05"	"2013-11-20"	"2013-05-05"	"2013-11-20"	NA	"2013-11-20T11:44"	NA	NA	716	80	"YEARS"	"F"	"WHITE"	"NOT HISPANIC OR LATINO"	"Xan_Hi"	"Xanomeline High Dose"	"Xan_Hi"	"Xanomeline High Dose"	"USA"	"2013-04-27"	-8	"Xanomeline High Dose"	"Xanomeline High Dose"	"2013-05-05T00:00:00Z"	"H"	"2013-11-20T23:59:59Z"	"H"	"2013-05-05"	"2013-11-20"	200	NA	"2013-11-20"	"COMPLETED"	NA	"2013-05-05"	NA	NA	NA	"2013-11-20"	">=65"	"Y"	"White"	NA	NA	NA	NA	NA
"285"	"CDISCPILOT01"	"01-716-1441"	1441	"2014-01-22"	"2014-07-22"	"2014-01-22"	"2014-07-22"	NA	"2014-07-22T10:00"	NA	NA	716	85	"YEARS"	"M"	"WHITE"	"NOT HISPANIC OR LATINO"	"Pbo"	"Placebo"	"Pbo"	"Placebo"	"USA"	"2014-01-13"	-9	"Placebo"	"Placebo"	"2014-01-22T00:00:00Z"	"H"	"2014-07-22T23:59:59Z"	"H"	"2014-01-22"	"2014-07-22"	182	NA	"2014-07-22"	"COMPLETED"	NA	"2014-01-22"	NA	NA	NA	"2014-07-22"	">=65"	"Y"	"White"	NA	NA	NA	NA	NA
"286"	"CDISCPILOT01"	"01-716-1447"	1447	"2013-12-16"	"2014-06-17"	"2013-12-16"	"2014-06-17"	NA	"2014-06-17T12:00"	NA	NA	716	72	"YEARS"	"F"	"WHITE"	"NOT HISPANIC OR LATINO"	"Xan_Hi"	"Xanomeline High Dose"	"Xan_Hi"	"Xanomeline High Dose"	"USA"	"2013-12-10"	-6	"Xanomeline High Dose"	"Xanomeline High Dose"	"2013-12-16T00:00:00Z"	"H"	"2014-06-17T23:59:59Z"	"H"	"2013-12-16"	"2014-06-17"	184	NA	"2014-06-17"	"COMPLETED"	NA	"2013-12-16"	NA	NA	NA	"2014-06-17"	">=65"	"Y"	"White"	NA	NA	NA	NA	NA
"287"	"CDISCPILOT01"	"01-717-1004"	1004	"2014-01-14"	"2014-07-16"	"2014-01-14"	"2014-07-16"	NA	"2014-07-16T13:21"	NA	NA	717	80	"YEARS"	"F"	"WHITE"	"NOT HISPANIC OR LATINO"	"Xan_Lo"	"Xanomeline Low Dose"	"Xan_Lo"	"Xanomeline Low Dose"	"USA"	"2014-01-01"	-13	"Xanomeline Low Dose"	"Xanomeline Low Dose"	"2014-01-14T00:00:00Z"	"H"	"2014-07-16T23:59:59Z"	"H"	"2014-01-14"	"2014-07-16"	184	NA	"2014-07-16"	"COMPLETED"	NA	"2014-01-14"	NA	NA	NA	"2014-07-16"	">=65"	"Y"	"White"	NA	NA	NA	NA	NA
"288"	"CDISCPILOT01"	"01-717-1109"	1109	"2014-01-27"	"2014-07-28"	"2014-01-27"	"2014-07-28"	NA	"2014-07-28T10:53"	NA	NA	717	84	"YEARS"	"M"	"WHITE"	"NOT HISPANIC OR LATINO"	"Xan_Hi"	"Xanomeline High Dose"	"Xan_Hi"	"Xanomeline High Dose"	"USA"	"2014-01-20"	-7	"Xanomeline High Dose"	"Xanomeline High Dose"	"2014-01-27T00:00:00Z"	"H"	"2014-07-28T23:59:59Z"	"H"	"2014-01-27"	"2014-07-28"	183	NA	"2014-07-28"	"COMPLETED"	NA	"2014-01-27"	NA	NA	NA	"2014-07-28"	">=65"	"Y"	"White"	NA	NA	NA	NA	NA
"289"	"CDISCPILOT01"	"01-717-1174"	1174	"2013-01-22"	"2013-07-24"	"2013-01-22"	"2013-07-24"	NA	"2013-07-24T15:15"	NA	NA	717	73	"YEARS"	"M"	"WHITE"	"NOT HISPANIC OR LATINO"	"Xan_Hi"	"Xanomeline High Dose"	"Xan_Hi"	"Xanomeline High Dose"	"USA"	"2013-01-16"	-6	"Xanomeline High Dose"	"Xanomeline High Dose"	"2013-01-22T00:00:00Z"	"H"	"2013-07-24T23:59:59Z"	"H"	"2013-01-22"	"2013-07-24"	184	NA	"2013-07-24"	"COMPLETED"	NA	"2013-01-22"	NA	NA	NA	"2013-07-24"	">=65"	"Y"	"White"	NA	NA	NA	NA	NA
"290"	"CDISCPILOT01"	"01-717-1201"	1201	"2013-12-19"	"2014-02-21"	"2013-12-19"	"2014-02-21"	NA	"2014-02-21T11:14"	NA	NA	717	85	"YEARS"	"F"	"WHITE"	"NOT HISPANIC OR LATINO"	"Pbo"	"Placebo"	"Pbo"	"Placebo"	"USA"	"2013-12-12"	-7	"Placebo"	"Placebo"	"2013-12-19T00:00:00Z"	"H"	"2014-02-21T23:59:59Z"	"H"	"2013-12-19"	"2014-02-21"	65	NA	"2014-02-21"	"DISCONTINUED"	NA	"2013-12-19"	NA	NA	NA	"2014-02-21"	">=65"	"Y"	"White"	NA	NA	NA	NA	NA
"291"	"CDISCPILOT01"	"01-717-1344"	1344	"2014-01-11"	"2014-03-14"	"2014-01-11"	"2014-03-14"	NA	"2014-03-14T14:14"	NA	NA	717	64	"YEARS"	"F"	"WHITE"	"NOT HISPANIC OR LATINO"	"Pbo"	"Placebo"	"Pbo"	"Placebo"	"USA"	"2014-01-01"	-10	"Placebo"	"Placebo"	"2014-01-11T00:00:00Z"	"H"	"2014-03-14T23:59:59Z"	"H"	"2014-01-11"	"2014-03-14"	63	NA	"2014-03-14"	"DISCONTINUED"	NA	"2014-01-11"	NA	NA	NA	"2014-03-14"	"18-64"	"Y"	"White"	NA	NA	NA	NA	NA
"292"	"CDISCPILOT01"	"01-717-1357"	1357	"2013-05-01"	"2013-10-20"	"2013-05-01"	"2013-10-14"	NA	"2013-10-20T10:52"	NA	NA	717	77	"YEARS"	"M"	"WHITE"	"NOT HISPANIC OR LATINO"	"Xan_Hi"	"Xanomeline High Dose"	"Xan_Hi"	"Xanomeline High Dose"	"USA"	"2013-04-21"	-10	"Xanomeline High Dose"	"Xanomeline High Dose"	"2013-05-01T00:00:00Z"	"H"	"2013-10-14T23:59:59Z"	"H"	"2013-05-01"	"2013-10-14"	167	NA	"2013-10-20"	"DISCONTINUED"	NA	"2013-05-01"	NA	NA	NA	"2013-10-20"	">=65"	"Y"	"White"	NA	NA	NA	NA	NA
"293"	"CDISCPILOT01"	"01-717-1446"	1446	"2013-09-01"	"2014-03-04"	"2013-09-01"	"2014-03-03"	NA	"2014-03-17T09:52"	NA	NA	717	75	"YEARS"	"F"	"WHITE"	"NOT HISPANIC OR LATINO"	"Xan_Lo"	"Xanomeline Low Dose"	"Xan_Lo"	"Xanomeline Low Dose"	"USA"	"2013-08-20"	-12	"Xanomeline Low Dose"	"Xanomeline Low Dose"	"2013-09-01T00:00:00Z"	"H"	"2014-03-03T23:59:59Z"	"H"	"2013-09-01"	"2014-03-03"	184	NA	"2014-03-04"	"COMPLETED"	NA	"2013-09-01"	NA	NA	NA	"2014-03-17"	">=65"	"Y"	"White"	NA	NA	NA	NA	NA
"294"	"CDISCPILOT01"	"01-718-1066"	1066	"2013-07-07"	"2013-07-30"	"2013-07-07"	"2013-07-16"	NA	"2014-01-13"	NA	NA	718	79	"YEARS"	"F"	"WHITE"	"NOT HISPANIC OR LATINO"	"Xan_Lo"	"Xanomeline Low Dose"	"Xan_Lo"	"Xanomeline Low Dose"	"USA"	"2013-06-28"	-9	"Xanomeline Low Dose"	"Xanomeline Low Dose"	"2013-07-07T00:00:00Z"	"H"	"2013-07-16T23:59:59Z"	"H"	"2013-07-07"	"2013-07-16"	10	NA	"2013-07-30"	"DISCONTINUED"	NA	"2013-07-07"	NA	NA	NA	"2013-07-30"	">=65"	"Y"	"White"	NA	NA	NA	NA	NA
"295"	"CDISCPILOT01"	"01-718-1079"	1079	"2012-09-19"	"2012-11-06"	"2012-09-19"	"2012-10-31"	NA	"2013-03-05"	NA	NA	718	67	"YEARS"	"F"	"WHITE"	"NOT HISPANIC OR LATINO"	"Xan_Lo"	"Xanomeline Low Dose"	"Xan_Lo"	"Xanomeline Low Dose"	"USA"	"2012-09-11"	-8	"Xanomeline Low Dose"	"Xanomeline Low Dose"	"2012-09-19T00:00:00Z"	"H"	"2012-10-31T23:59:59Z"	"H"	"2012-09-19"	"2012-10-31"	43	NA	"2012-11-06"	"DISCONTINUED"	"2013-03-05"	"2012-09-19"	NA	NA	NA	"2012-10-31"	">=65"	"Y"	"White"	NA	NA	NA	NA	NA
"296"	"CDISCPILOT01"	"01-718-1101"	1101	"2013-02-17"	"2013-08-02"	"2013-02-17"	"2013-07-31"	NA	"2013-08-02T11:30"	NA	NA	718	82	"YEARS"	"M"	"BLACK OR AFRICAN AMERICAN"	"NOT HISPANIC OR LATINO"	"Xan_Hi"	"Xanomeline High Dose"	"Xan_Hi"	"Xanomeline High Dose"	"USA"	"2013-02-01"	-16	"Xanomeline High Dose"	"Xanomeline High Dose"	"2013-02-17T00:00:00Z"	"H"	"2013-07-31T23:59:59Z"	"H"	"2013-02-17"	"2013-07-31"	165	NA	"2013-08-02"	"DISCONTINUED"	NA	"2013-02-17"	NA	NA	NA	"2013-08-02"	">=65"	"Y"	"Non-white"	NA	NA	NA	NA	NA
"297"	"CDISCPILOT01"	"01-718-1139"	1139	"2013-05-19"	"2013-11-17"	"2013-05-19"	"2013-11-17"	NA	"2013-11-17T10:30"	NA	NA	718	77	"YEARS"	"M"	"WHITE"	"NOT HISPANIC OR LATINO"	"Pbo"	"Placebo"	"Pbo"	"Placebo"	"USA"	"2013-05-03"	-16	"Placebo"	"Placebo"	"2013-05-19T00:00:00Z"	"H"	"2013-11-17T23:59:59Z"	"H"	"2013-05-19"	"2013-11-17"	183	NA	"2013-11-17"	"COMPLETED"	NA	"2013-05-19"	NA	NA	NA	"2013-11-17"	">=65"	"Y"	"White"	NA	NA	NA	NA	NA
"298"	"CDISCPILOT01"	"01-718-1150"	1150	"2013-01-19"	"2013-07-31"	"2013-01-19"	"2013-07-29"	NA	"2013-07-31T14:05"	NA	NA	718	73	"YEARS"	"F"	"WHITE"	"NOT HISPANIC OR LATINO"	"Pbo"	"Placebo"	"Pbo"	"Placebo"	"USA"	"2013-01-12"	-7	"Placebo"	"Placebo"	"2013-01-19T00:00:00Z"	"H"	"2013-07-29T23:59:59Z"	"H"	"2013-01-19"	"2013-07-29"	192	NA	"2013-07-31"	"COMPLETED"	NA	"2013-01-19"	NA	NA	NA	"2013-07-31"	">=65"	"Y"	"White"	NA	NA	NA	NA	NA
"299"	"CDISCPILOT01"	"01-718-1170"	1170	"2013-09-16"	"2013-11-03"	"2013-09-16"	"2013-10-12"	NA	"2014-03-15"	NA	NA	718	80	"YEARS"	"F"	"WHITE"	"NOT HISPANIC OR LATINO"	"Xan_Lo"	"Xanomeline Low Dose"	"Xan_Lo"	"Xanomeline Low Dose"	"USA"	"2013-08-25"	-22	"Xanomeline Low Dose"	"Xanomeline Low Dose"	"2013-09-16T00:00:00Z"	"H"	"2013-10-12T23:59:59Z"	"H"	"2013-09-16"	"2013-10-12"	27	NA	"2013-11-03"	"DISCONTINUED"	"2014-03-15"	"2013-09-16"	NA	NA	NA	"2013-11-03"	">=65"	"Y"	"White"	NA	NA	NA	NA	NA
"300"	"CDISCPILOT01"	"01-718-1172"	1172	"2013-09-21"	"2013-11-29"	"2013-09-21"	"2013-11-29"	NA	"2014-03-21"	NA	NA	718	74	"YEARS"	"M"	"WHITE"	"NOT HISPANIC OR LATINO"	"Pbo"	"Placebo"	"Pbo"	"Placebo"	"USA"	"2013-09-15"	-6	"Placebo"	"Placebo"	"2013-09-21T00:00:00Z"	"H"	"2013-11-29T23:59:59Z"	"H"	"2013-09-21"	"2013-11-29"	70	NA	"2013-11-29"	"DISCONTINUED"	"2014-03-21"	"2013-09-21"	NA	NA	NA	"2013-11-29"	">=65"	"Y"	"White"	NA	NA	NA	NA	NA
"301"	"CDISCPILOT01"	"01-718-1250"	1250	"2013-09-21"	"2014-02-08"	"2013-09-21"	"2014-01-31"	NA	"2014-03-08"	NA	NA	718	82	"YEARS"	"F"	"WHITE"	"HISPANIC OR LATINO"	"Xan_Lo"	"Xanomeline Low Dose"	"Xan_Lo"	"Xanomeline Low Dose"	"USA"	"2013-08-21"	-31	"Xanomeline Low Dose"	"Xanomeline Low Dose"	"2013-09-21T00:00:00Z"	"H"	"2014-01-31T23:59:59Z"	"H"	"2013-09-21"	"2014-01-31"	133	NA	"2014-02-08"	"DISCONTINUED"	"2014-03-08"	"2013-09-21"	NA	NA	NA	"2014-02-19"	">=65"	"Y"	"White"	NA	NA	NA	NA	NA
"302"	"CDISCPILOT01"	"01-718-1254"	1254	"2013-07-10"	"2014-01-09"	"2013-07-10"	"2014-01-09"	NA	"2014-01-09T11:10"	NA	NA	718	78	"YEARS"	"M"	"WHITE"	"HISPANIC OR LATINO"	"Xan_Lo"	"Xanomeline Low Dose"	"Xan_Lo"	"Xanomeline Low Dose"	"USA"	"2013-06-28"	-12	"Xanomeline Low Dose"	"Xanomeline Low Dose"	"2013-07-10T00:00:00Z"	"H"	"2014-01-09T23:59:59Z"	"H"	"2013-07-10"	"2014-01-09"	184	NA	"2014-01-09"	"COMPLETED"	NA	"2013-07-10"	NA	NA	NA	"2014-01-09"	">=65"	"Y"	"White"	NA	NA	NA	NA	NA
"303"	"CDISCPILOT01"	"01-718-1328"	1328	"2013-02-01"	"2013-05-01"	"2013-02-01"	"2013-04-18"	NA	"2013-07-24"	NA	NA	718	86	"YEARS"	"M"	"WHITE"	"NOT HISPANIC OR LATINO"	"Xan_Hi"	"Xanomeline High Dose"	"Xan_Hi"	"Xanomeline High Dose"	"USA"	"2013-01-28"	-4	"Xanomeline High Dose"	"Xanomeline High Dose"	"2013-02-01T00:00:00Z"	"H"	"2013-04-18T23:59:59Z"	"H"	"2013-02-01"	"2013-04-18"	77	NA	"2013-05-01"	"DISCONTINUED"	"2013-07-24"	"2013-02-01"	NA	NA	NA	"2013-05-01"	">=65"	"Y"	"White"	NA	NA	NA	NA	NA
"304"	"CDISCPILOT01"	"01-718-1355"	1355	"2013-02-28"	"2013-08-29"	"2013-02-28"	"2013-08-29"	NA	"2013-08-29T14:00"	NA	NA	718	79	"YEARS"	"M"	"WHITE"	"NOT HISPANIC OR LATINO"	"Pbo"	"Placebo"	"Pbo"	"Placebo"	"USA"	"2013-02-12"	-16	"Placebo"	"Placebo"	"2013-02-28T00:00:00Z"	"H"	"2013-08-29T23:59:59Z"	"H"	"2013-02-28"	"2013-08-29"	183	NA	"2013-08-29"	"COMPLETED"	NA	"2013-02-28"	NA	NA	NA	"2013-08-29"	">=65"	"Y"	"White"	NA	NA	NA	NA	NA
"305"	"CDISCPILOT01"	"01-718-1371"	1371	"2013-04-26"	"2013-08-08"	"2013-04-26"	"2013-08-01"	NA	"2013-08-08"	NA	NA	718	69	"YEARS"	"F"	"WHITE"	"NOT HISPANIC OR LATINO"	"Xan_Hi"	"Xanomeline High Dose"	"Xan_Hi"	"Xanomeline High Dose"	"USA"	"2013-04-11"	-15	"Xanomeline High Dose"	"Xanomeline High Dose"	"2013-04-26T00:00:00Z"	"H"	"2013-08-01T23:59:59Z"	"H"	"2013-04-26"	"2013-08-01"	98	NA	"2013-08-08"	"DISCONTINUED"	NA	"2013-04-26"	NA	NA	NA	"2013-08-01"	">=65"	"Y"	"White"	NA	NA	NA	NA	NA
"306"	"CDISCPILOT01"	"01-718-1427"	1427	"2012-12-17"	"2013-02-18"	"2012-12-17"	"2013-02-11"	NA	"2013-06-03"	NA	NA	718	74	"YEARS"	"F"	"BLACK OR AFRICAN AMERICAN"	"NOT HISPANIC OR LATINO"	"Xan_Hi"	"Xanomeline High Dose"	"Xan_Hi"	"Xanomeline High Dose"	"USA"	"2012-12-13"	-4	"Xanomeline High Dose"	"Xanomeline High Dose"	"2012-12-17T00:00:00Z"	"H"	"2013-02-11T23:59:59Z"	"H"	"2012-12-17"	"2013-02-11"	57	NA	"2013-02-18"	"DISCONTINUED"	"2013-06-03"	"2012-12-17"	NA	NA	NA	"2013-02-18"	">=65"	"Y"	"Non-white"	NA	NA	NA	NA	NA
